# t qw qx qy qz x y z vx vy vz p q r ax ay az
0 0.916578 0.034924 0.0812511 -0.389953 -0.539923 1.84155 0.911272 -1.4011 -2.31549 -0.00953481 -0.158569 -0.123447 0.976979 1.77238 -4.42839 0.272854 
0.001 0.916776 0.0348667 0.0812078 -0.389501 -0.541325 1.83923 0.911263 -1.40303 -2.31985 -0.00958043 -0.158539 -0.125755 0.977742 1.78207 -4.40101 0.276333 
0.002 0.916974 0.034809 0.0811635 -0.389048 -0.542729 1.83691 0.911253 -1.40493 -2.32419 -0.00962416 -0.158508 -0.12803 0.978492 1.79169 -4.37361 0.279809 
0.003 0.917173 0.034751 0.081118 -0.388595 -0.544135 1.83458 0.911244 -1.4068 -2.32853 -0.00966597 -0.158476 -0.130272 0.979231 1.80125 -4.34619 0.283282 
0.004 0.917371 0.0346925 0.0810715 -0.388142 -0.545543 1.83225 0.911234 -1.40864 -2.33286 -0.00970585 -0.158445 -0.13248 0.979957 1.81075 -4.31877 0.286752 
0.005 0.917569 0.0346336 0.081024 -0.387688 -0.546952 1.82992 0.911224 -1.41045 -2.33718 -0.00974379 -0.158413 -0.134655 0.980672 1.8202 -4.29133 0.290219 
0.006 0.917768 0.0345744 0.0809754 -0.387234 -0.548364 1.82758 0.911214 -1.41222 -2.34148 -0.00977977 -0.158382 -0.136796 0.981374 1.82958 -4.26388 0.293682 
0.007 0.917966 0.0345148 0.0809259 -0.386779 -0.549777 1.82523 0.911205 -1.41397 -2.34578 -0.00981378 -0.15835 -0.138904 0.982063 1.83891 -4.23642 0.297143 
0.008 0.918164 0.0344548 0.0808753 -0.386324 -0.551192 1.82288 0.911195 -1.41569 -2.35007 -0.00984579 -0.158318 -0.140978 0.982741 1.84818 -4.20894 0.300601 
0.009 0.918362 0.0343944 0.0808237 -0.385869 -0.552608 1.82053 0.911185 -1.41737 -2.35434 -0.00987581 -0.158286 -0.143019 0.983406 1.8574 -4.18146 0.304056 
0.01 0.918561 0.0343337 0.0807712 -0.385413 -0.554026 1.81818 0.911175 -1.41903 -2.35861 -0.0099038 -0.158255 -0.145027 0.984059 1.86655 -4.15396 0.307509 
0.011 0.918759 0.0342727 0.0807177 -0.384957 -0.555446 1.81581 0.911165 -1.42065 -2.36286 -0.00992977 -0.158223 -0.147001 0.9847 1.87566 -4.12645 0.310958 
0.012 0.918957 0.0342112 0.0806633 -0.384501 -0.556868 1.81345 0.911155 -1.42224 -2.36711 -0.00995369 -0.158191 -0.148941 0.985328 1.88471 -4.09893 0.314404 
0.013 0.919155 0.0341495 0.080608 -0.384044 -0.558291 1.81108 0.911145 -1.42381 -2.37134 -0.00997555 -0.15816 -0.150848 0.985944 1.8937 -4.0714 0.317847 
0.014 0.919353 0.0340874 0.0805517 -0.383587 -0.559715 1.80871 0.911135 -1.42534 -2.37556 -0.00999533 -0.158129 -0.152722 0.986548 1.90264 -4.04386 0.321287 
0.015 0.919551 0.034025 0.0804946 -0.38313 -0.561141 1.80633 0.911125 -1.42684 -2.37977 -0.010013 -0.158098 -0.154562 0.98714 1.91153 -4.01632 0.324724 
0.016 0.919749 0.0339623 0.0804366 -0.382672 -0.562569 1.80395 0.911115 -1.42831 -2.38397 -0.0100286 -0.158067 -0.156369 0.987719 1.92037 -3.98876 0.328158 
0.017 0.919947 0.0338992 0.0803777 -0.382214 -0.563998 1.80156 0.911105 -1.42975 -2.38816 -0.0100421 -0.158037 -0.158142 0.988286 1.92915 -3.96119 0.331589 
0.018 0.920145 0.0338359 0.080318 -0.381755 -0.565428 1.79917 0.911095 -1.43116 -2.39233 -0.0100535 -0.158007 -0.159882 0.988841 1.93788 -3.93361 0.335017 
0.019 0.920343 0.0337722 0.0802575 -0.381297 -0.56686 1.79678 0.911085 -1.43254 -2.3965 -0.0100627 -0.157977 -0.161588 0.989384 1.94656 -3.90603 0.338442 
0.02 0.920541 0.0337083 0.0801961 -0.380838 -0.568293 1.79438 0.911075 -1.4339 -2.40065 -0.0100697 -0.157948 -0.163261 0.989914 1.95519 -3.87844 0.341863 
0.021 0.920738 0.0336441 0.080134 -0.380378 -0.569728 1.79198 0.911065 -1.43522 -2.40479 -0.0100746 -0.157919 -0.164901 0.990432 1.96378 -3.85084 0.345281 
0.022 0.920936 0.0335795 0.080071 -0.379919 -0.571164 1.78957 0.911055 -1.43651 -2.40892 -0.0100773 -0.157891 -0.166507 0.990937 1.97231 -3.82323 0.348696 
0.023 0.921133 0.0335147 0.0800073 -0.379459 -0.572601 1.78716 0.911045 -1.43777 -2.41304 -0.0100779 -0.157863 -0.168079 0.991431 1.98079 -3.79561 0.352107 
0.024 0.921331 0.0334497 0.0799429 -0.378998 -0.574039 1.78474 0.911035 -1.439 -2.41714 -0.0100762 -0.157835 -0.169619 0.991911 1.98923 -3.76799 0.355514 
0.025 0.921528 0.0333843 0.0798777 -0.378538 -0.575479 1.78232 0.911025 -1.4402 -2.42124 -0.0100723 -0.157809 -0.171124 0.99238 1.99762 -3.74036 0.358918 
0.026 0.921725 0.0333187 0.0798118 -0.378077 -0.57692 1.7799 0.911015 -1.44137 -2.42532 -0.0100661 -0.157782 -0.172596 0.992836 2.00596 -3.71272 0.362319 
0.027 0.921923 0.0332529 0.0797452 -0.377616 -0.578362 1.77747 0.911005 -1.44251 -2.42939 -0.0100578 -0.157757 -0.174035 0.99328 2.01425 -3.68508 0.365715 
0.028 0.92212 0.0331868 0.0796779 -0.377154 -0.579805 1.77504 0.910994 -1.44362 -2.43344 -0.0100471 -0.157732 -0.175441 0.993712 2.0225 -3.65743 0.369108 
0.029 0.922317 0.0331205 0.0796099 -0.376693 -0.581249 1.77261 0.910984 -1.44471 -2.43749 -0.0100343 -0.157707 -0.176812 0.994131 2.0307 -3.62978 0.372496 
0.03 0.922513 0.0330539 0.0795413 -0.376231 -0.582694 1.77017 0.910974 -1.44576 -2.44152 -0.0100191 -0.157683 -0.178151 0.994538 2.03885 -3.60212 0.37588 
0.031 0.92271 0.0329871 0.0794721 -0.375769 -0.58414 1.76772 0.910964 -1.44678 -2.44554 -0.0100017 -0.15766 -0.179456 0.994933 2.04696 -3.57445 0.37926 
0.032 0.922907 0.03292 0.0794022 -0.375306 -0.585588 1.76528 0.910954 -1.44777 -2.44954 -0.00998193 -0.157638 -0.180727 0.995315 2.05503 -3.54679 0.382636 
0.033 0.923103 0.0328528 0.0793317 -0.374843 -0.587036 1.76282 0.910944 -1.44874 -2.45353 -0.00995989 -0.157617 -0.181965 0.995685 2.06305 -3.51911 0.386007 
0.034 0.9233 0.0327853 0.0792606 -0.374381 -0.588485 1.76037 0.910934 -1.44967 -2.45751 -0.00993554 -0.157596 -0.18317 0.996042 2.07102 -3.49143 0.389374 
0.035 0.923496 0.0327177 0.0791889 -0.373917 -0.589935 1.75791 0.910925 -1.45058 -2.46148 -0.00990886 -0.157576 -0.184341 0.996388 2.07896 -3.46375 0.392735 
0.036 0.923692 0.0326498 0.0791167 -0.373454 -0.591386 1.75545 0.910915 -1.45145 -2.46543 -0.00987985 -0.157557 -0.185479 0.99672 2.08685 -3.43607 0.396092 
0.037 0.923888 0.0325817 0.0790439 -0.37299 -0.592838 1.75298 0.910905 -1.4523 -2.46937 -0.0098485 -0.157538 -0.186583 0.997041 2.09469 -3.40838 0.399443 
0.038 0.924084 0.0325135 0.0789706 -0.372526 -0.594291 1.75051 0.910895 -1.45312 -2.4733 -0.00981479 -0.157521 -0.187654 0.997349 2.1025 -3.38068 0.402789 
0.039 0.924279 0.032445 0.0788967 -0.372062 -0.595744 1.74803 0.910885 -1.45391 -2.47721 -0.00977872 -0.157504 -0.188691 0.997644 2.11026 -3.35299 0.40613 
0.04 0.924475 0.0323764 0.0788224 -0.371598 -0.597199 1.74555 0.910875 -1.45467 -2.48111 -0.00974029 -0.157489 -0.189695 0.997928 2.11798 -3.32529 0.409465 
0.041 0.92467 0.0323076 0.0787476 -0.371133 -0.598654 1.74307 0.910866 -1.4554 -2.485 -0.00969948 -0.157474 -0.190665 0.998199 2.12566 -3.29759 0.412794 
0.042 0.924865 0.0322386 0.0786723 -0.370669 -0.60011 1.74058 0.910856 -1.4561 -2.48887 -0.00965628 -0.15746 -0.191602 0.998457 2.1333 -3.26989 0.416117 
0.043 0.92506 0.0321695 0.0785965 -0.370204 -0.601566 1.73809 0.910846 -1.45677 -2.49273 -0.0096107 -0.157447 -0.192505 0.998703 2.14089 -3.24219 0.419433 
0.044 0.925255 0.0321002 0.0785204 -0.369739 -0.603023 1.7356 0.910837 -1.45742 -2.49657 -0.00956271 -0.157435 -0.193375 0.998937 2.14845 -3.21448 0.422743 
0.045 0.92545 0.0320308 0.0784438 -0.369273 -0.604481 1.7331 0.910827 -1.45803 -2.5004 -0.00951233 -0.157424 -0.194212 0.999159 2.15597 -3.18678 0.426047 
0.046 0.925645 0.0319612 0.0783668 -0.368808 -0.605939 1.7306 0.910818 -1.45862 -2.50422 -0.00945953 -0.157415 -0.195014 0.999368 2.16344 -3.15907 0.429343 
0.047 0.925839 0.0318914 0.0782894 -0.368342 -0.607398 1.72809 0.910808 -1.45918 -2.50802 -0.00940431 -0.157406 -0.195784 0.999564 2.17088 -3.13137 0.432633 
0.048 0.926033 0.0318216 0.0782116 -0.367876 -0.608857 1.72558 0.910799 -1.45971 -2.51181 -0.00934667 -0.157398 -0.19652 0.999749 2.17827 -3.10366 0.435914 
0.049 0.926227 0.0317516 0.0781335 -0.36741 -0.610317 1.72307 0.91079 -1.46021 -2.51559 -0.0092866 -0.157391 -0.197223 0.99992 2.18563 -3.07595 0.439189 
0.05 0.926421 0.0316815 0.078055 -0.366944 -0.611778 1.72055 0.91078 -1.46068 -2.51935 -0.00922411 -0.157385 -0.197892 1.00008 2.19295 -3.04825 0.442455 
0.051 0.926614 0.0316112 0.0779762 -0.366478 -0.613239 1.71803 0.910771 -1.46112 -2.52309 -0.00915917 -0.157381 -0.198527 1.00023 2.20022 -3.02054 0.445713 
0.052 0.926808 0.0315409 0.0778971 -0.366011 -0.6147 1.7155 0.910762 -1.46154 -2.52682 -0.00909179 -0.157377 -0.199129 1.00036 2.20746 -2.99284 0.448963 
0.053 0.927001 0.0314704 0.0778177 -0.365545 -0.616162 1.71297 0.910753 -1.46193 -2.53054 -0.00902197 -0.157374 -0.199698 1.00048 2.21467 -2.96513 0.452203 
0.054 0.927194 0.0313998 0.0777381 -0.365078 -0.617624 1.71044 0.910744 -1.46229 -2.53424 -0.0089497 -0.157373 -0.200233 1.00059 2.22183 -2.93743 0.455435 
0.055 0.927387 0.0313292 0.0776581 -0.364611 -0.619086 1.70791 0.910735 -1.46262 -2.53793 -0.00887498 -0.157373 -0.200735 1.00069 2.22895 -2.90973 0.458658 
0.056 0.927579 0.0312584 0.0775779 -0.364144 -0.620549 1.70537 0.910726 -1.46292 -2.5416 -0.00879781 -0.157373 -0.201203 1.00078 2.23604 -2.88203 0.461871 
0.057 0.927772 0.0311876 0.0774975 -0.363677 -0.622012 1.70282 0.910718 -1.46319 -2.54526 -0.00871818 -0.157375 -0.201637 1.00085 2.24309 -2.85434 0.465074 
0.058 0.927964 0.0311167 0.0774169 -0.36321 -0.623476 1.70028 0.910709 -1.46344 -2.5489 -0.0086361 -0.157378 -0.202039 1.00091 2.2501 -2.82665 0.468266 
0.059 0.928156 0.0310456 0.0773361 -0.362742 -0.624939 1.69772 0.9107 -1.46366 -2.55253 -0.00855156 -0.157383 -0.202406 1.00096 2.25708 -2.79896 0.471448 
0.06 0.928348 0.0309746 0.077255 -0.362275 -0.626403 1.69517 0.910692 -1.46385 -2.55614 -0.00846456 -0.157388 -0.20274 1.00099 2.26402 -2.77127 0.47462 
0.061 0.928539 0.0309034 0.0771739 -0.361807 -0.627867 1.69261 0.910683 -1.46401 -2.55973 -0.0083751 -0.157395 -0.203041 1.00102 2.27092 -2.74359 0.47778 
0.062 0.92873 0.0308322 0.0770925 -0.361339 -0.629331 1.69005 0.910675 -1.46415 -2.56332 -0.00828318 -0.157402 -0.203308 1.00103 2.27778 -2.71591 0.480928 
0.063 0.928921 0.0307609 0.0770111 -0.360871 -0.630795 1.68749 0.910667 -1.46426 -2.56688 -0.0081888 -0.157411 -0.203542 1.00102 2.28461 -2.68824 0.484064 
0.064 0.929112 0.0306896 0.0769295 -0.360404 -0.632259 1.68492 0.910659 -1.46434 -2.57043 -0.00809197 -0.157421 -0.203742 1.00101 2.2914 -2.66057 0.487189 
0.065 0.929303 0.0306183 0.0768478 -0.359936 -0.633724 1.68234 0.910651 -1.46439 -2.57397 -0.00799269 -0.157432 -0.203909 1.00098 2.29815 -2.6329 0.4903 
0.066 0.929493 0.0305469 0.076766 -0.359467 -0.635188 1.67977 0.910643 -1.46442 -2.57749 -0.00789095 -0.157445 -0.204042 1.00094 2.30487 -2.60525 0.493398 
0.067 0.929683 0.0304754 0.0766842 -0.358999 -0.636653 1.67719 0.910635 -1.46441 -2.58099 -0.00778676 -0.157458 -0.204141 1.00089 2.31155 -2.57759 0.496483 
0.068 0.929873 0.0304039 0.0766022 -0.358531 -0.638117 1.67461 0.910627 -1.46438 -2.58448 -0.00768012 -0.157473 -0.204208 1.00083 2.3182 -2.54994 0.499555 
0.069 0.930062 0.0303324 0.0765203 -0.358063 -0.639581 1.67202 0.910619 -1.46433 -2.58795 -0.00757104 -0.157489 -0.20424 1.00075 2.3248 -2.5223 0.502611 
0.07 0.930251 0.0302609 0.0764383 -0.357595 -0.641046 1.66943 0.910612 -1.46424 -2.59141 -0.00745952 -0.157506 -0.204239 1.00066 2.33138 -2.49467 0.505654 
0.071 0.93044 0.0301894 0.0763564 -0.357126 -0.64251 1.66684 0.910605 -1.46413 -2.59485 -0.00734557 -0.157524 -0.204205 1.00056 2.33791 -2.46704 0.508681 
0.072 0.930629 0.0301178 0.0762744 -0.356658 -0.643974 1.66424 0.910597 -1.46399 -2.59827 -0.00722919 -0.157543 -0.204137 1.00045 2.34441 -2.43942 0.511693 
0.073 0.930817 0.0300463 0.0761924 -0.356189 -0.645438 1.66164 0.91059 -1.46383 -2.60168 -0.00711039 -0.157564 -0.204036 1.00032 2.35088 -2.4118 0.514689 
0.074 0.931006 0.0299747 0.0761105 -0.355721 -0.646902 1.65904 0.910583 -1.46364 -2.60507 -0.00698917 -0.157585 -0.203901 1.00019 2.3573 -2.3842 0.517668 
0.075 0.931194 0.0299031 0.0760287 -0.355252 -0.648365 1.65643 0.910576 -1.46342 -2.60845 -0.00686554 -0.157608 -0.203732 1.00004 2.3637 -2.3566 0.520631 
0.076 0.931381 0.0298316 0.0759469 -0.354784 -0.649828 1.65382 0.910569 -1.46317 -2.61181 -0.00673951 -0.157632 -0.20353 0.999873 2.37005 -2.32901 0.523576 
0.077 0.931568 0.0297601 0.0758652 -0.354315 -0.651291 1.65121 0.910563 -1.4629 -2.61515 -0.00661108 -0.157657 -0.203294 0.999697 2.37637 -2.30143 0.526504 
0.078 0.931755 0.0296885 0.0757836 -0.353846 -0.652754 1.64859 0.910556 -1.4626 -2.61848 -0.00648027 -0.157683 -0.203025 0.999509 2.38265 -2.27386 0.529413 
0.079 0.931942 0.029617 0.0757022 -0.353378 -0.654217 1.64597 0.91055 -1.46227 -2.62179 -0.00634708 -0.157711 -0.202723 0.999309 2.3889 -2.24629 0.532304 
0.08 0.932129 0.0295456 0.0756209 -0.352909 -0.655679 1.64335 0.910543 -1.46192 -2.62508 -0.00621153 -0.157739 -0.202387 0.999097 2.39511 -2.21874 0.535176 
0.081 0.932315 0.0294741 0.0755397 -0.352441 -0.65714 1.64072 0.910537 -1.46154 -2.62836 -0.00607362 -0.157769 -0.202017 0.998872 2.40129 -2.1912 0.538028 
0.082 0.932501 0.0294027 0.0754587 -0.351972 -0.658602 1.63809 0.910531 -1.46114 -2.63162 -0.00593337 -0.1578 -0.201614 0.998634 2.40743 -2.16366 0.540859 
0.083 0.932686 0.0293314 0.0753779 -0.351503 -0.660063 1.63546 0.910525 -1.4607 -2.63486 -0.00579078 -0.157831 -0.201177 0.998385 2.41353 -2.13614 0.543671 
0.084 0.932871 0.0292601 0.0752972 -0.351035 -0.661523 1.63282 0.91052 -1.46025 -2.63809 -0.00564587 -0.157864 -0.200707 0.998122 2.4196 -2.10863 0.54646 
0.085 0.933056 0.0291888 0.0752168 -0.350566 -0.662983 1.63018 0.910514 -1.45976 -2.6413 -0.00549866 -0.157898 -0.200203 0.997848 2.42563 -2.08113 0.549229 
0.086 0.933241 0.0291176 0.0751367 -0.350098 -0.664443 1.62754 0.910509 -1.45925 -2.64449 -0.00534915 -0.157933 -0.199666 0.997561 2.43162 -2.05364 0.551975 
0.087 0.933425 0.0290465 0.0750568 -0.349629 -0.665902 1.62489 0.910503 -1.45872 -2.64767 -0.00519737 -0.157969 -0.199095 0.997262 2.43758 -2.02616 0.554698 
0.088 0.933609 0.0289754 0.0749771 -0.349161 -0.66736 1.62224 0.910498 -1.45815 -2.65083 -0.00504332 -0.158006 -0.19849 0.99695 2.4435 -1.99869 0.557397 
0.089 0.933793 0.0289044 0.0748977 -0.348692 -0.668818 1.61959 0.910493 -1.45757 -2.65397 -0.00488702 -0.158045 -0.197852 0.996626 2.44938 -1.97124 0.560073 
0.09 0.933976 0.0288335 0.0748187 -0.348224 -0.670275 1.61693 0.910488 -1.45695 -2.65709 -0.00472849 -0.158084 -0.197181 0.99629 2.45523 -1.9438 0.562724 
0.091 0.934159 0.0287626 0.0747399 -0.347756 -0.671732 1.61428 0.910484 -1.45631 -2.6602 -0.00456774 -0.158124 -0.196476 0.995941 2.46104 -1.91637 0.565351 
0.092 0.934341 0.0286919 0.0746615 -0.347287 -0.673188 1.61161 0.910479 -1.45565 -2.66329 -0.0044048 -0.158165 -0.195737 0.99558 2.46681 -1.88896 0.567951 
0.093 0.934524 0.0286212 0.0745834 -0.346819 -0.674643 1.60895 0.910475 -1.45496 -2.66636 -0.00423967 -0.158207 -0.194965 0.995206 2.47255 -1.86156 0.570525 
0.094 0.934706 0.0285507 0.0745057 -0.346351 -0.676098 1.60628 0.910471 -1.45424 -2.66941 -0.00407239 -0.15825 -0.194159 0.99482 2.47825 -1.83417 0.573073 
0.095 0.934887 0.0284802 0.0744283 -0.345883 -0.677552 1.60361 0.910467 -1.4535 -2.67245 -0.00390297 -0.158294 -0.19332 0.994422 2.48391 -1.8068 0.575593 
0.096 0.935068 0.0284098 0.0743514 -0.345415 -0.679005 1.60094 0.910463 -1.45273 -2.67547 -0.00373143 -0.158338 -0.192447 0.994012 2.48953 -1.77945 0.578085 
0.097 0.935249 0.0283396 0.0742748 -0.344947 -0.680457 1.59826 0.910459 -1.45194 -2.67847 -0.00355779 -0.158384 -0.19154 0.993589 2.49512 -1.7521 0.580548 
0.098 0.93543 0.0282694 0.0741987 -0.34448 -0.681909 1.59558 0.910456 -1.45112 -2.68145 -0.00338207 -0.15843 -0.1906 0.993153 2.50066 -1.72478 0.582982 
0.099 0.93561 0.0281994 0.074123 -0.344012 -0.683359 1.5929 0.910453 -1.45028 -2.68442 -0.0032043 -0.158478 -0.189627 0.992706 2.50617 -1.69747 0.585385 
0.1 0.93579 0.0281295 0.0740478 -0.343544 -0.684809 1.59021 0.91045 -1.44941 -2.68737 -0.0030245 -0.158526 -0.188619 0.992246 2.51164 -1.67017 0.587759 
0.101 0.935969 0.0280597 0.0739731 -0.343077 -0.686258 1.58752 0.910447 -1.44852 -2.6903 -0.0028427 -0.158574 -0.187579 0.991773 2.51707 -1.64289 0.5901 
0.102 0.936149 0.0279901 0.0738988 -0.34261 -0.687706 1.58483 0.910444 -1.4476 -2.69321 -0.00265891 -0.158624 -0.186504 0.991289 2.52246 -1.61563 0.59241 
0.103 0.936327 0.0279206 0.0738251 -0.342143 -0.689153 1.58214 0.910441 -1.44665 -2.6961 -0.00247318 -0.158674 -0.185397 0.990792 2.52781 -1.58839 0.594687 
0.104 0.936506 0.0278512 0.0737519 -0.341675 -0.690599 1.57944 0.910439 -1.44569 -2.69898 -0.00228551 -0.158725 -0.184255 0.990283 2.53313 -1.56116 0.596931 
0.105 0.936684 0.027782 0.0736792 -0.341209 -0.692045 1.57674 0.910437 -1.4447 -2.70183 -0.00209595 -0.158777 -0.18308 0.989761 2.5384 -1.53395 0.599141 
0.106 0.936861 0.027713 0.0736071 -0.340742 -0.693489 1.57403 0.910435 -1.44368 -2.70467 -0.00190451 -0.158829 -0.181872 0.989227 2.54363 -1.50676 0.601316 
0.107 0.937039 0.0276441 0.0735355 -0.340275 -0.694932 1.57133 0.910433 -1.44264 -2.70749 -0.00171123 -0.158882 -0.180629 0.988681 2.54883 -1.47959 0.603455 
0.108 0.937215 0.0275753 0.0734646 -0.339809 -0.696374 1.56862 0.910431 -1.44157 -2.71029 -0.00151614 -0.158936 -0.179354 0.988122 2.55398 -1.45243 0.605559 
0.109 0.937392 0.0275068 0.0733942 -0.339342 -0.697815 1.56591 0.91043 -1.44048 -2.71308 -0.00131927 -0.15899 -0.178044 0.987551 2.55909 -1.4253 0.607625 
0.11 0.937568 0.0274384 0.0733244 -0.338876 -0.699255 1.56319 0.910429 -1.43937 -2.71584 -0.00112064 -0.159045 -0.176701 0.986968 2.56416 -1.39818 0.609654 
0.111 0.937744 0.0273701 0.0732553 -0.33841 -0.700694 1.56048 0.910428 -1.43823 -2.71859 -0.000920302 -0.1591 -0.175325 0.986373 2.56919 -1.37109 0.611644 
0.112 0.937919 0.0273021 0.0731869 -0.337944 -0.702132 1.55776 0.910427 -1.43707 -2.72132 -0.000718277 -0.159155 -0.173915 0.985765 2.57418 -1.34401 0.613596 
0.113 0.938094 0.0272342 0.0731191 -0.337479 -0.703568 1.55503 0.910426 -1.43588 -2.72403 -0.000514603 -0.159211 -0.172471 0.985145 2.57913 -1.31696 0.615507 
0.114 0.938268 0.0271666 0.073052 -0.337013 -0.705003 1.55231 0.910426 -1.43467 -2.72672 -0.000309313 -0.159268 -0.170994 0.984513 2.58403 -1.28992 0.617378 
0.115 0.938442 0.0270991 0.0729856 -0.336548 -0.706437 1.54958 0.910426 -1.43344 -2.72939 -0.000102444 -0.159325 -0.169483 0.983868 2.58889 -1.26291 0.619207 
0.116 0.938616 0.0270318 0.0729199 -0.336083 -0.70787 1.54685 0.910426 -1.43218 -2.73204 0.000105967 -0.159382 -0.167939 0.983211 2.59371 -1.23592 0.620994 
0.117 0.938789 0.0269647 0.072855 -0.335618 -0.709302 1.54412 0.910426 -1.4309 -2.73467 0.000315882 -0.159439 -0.166361 0.982542 2.59848 -1.20895 0.622738 
0.118 0.938962 0.0268979 0.0727908 -0.335153 -0.710732 1.54138 0.910426 -1.4296 -2.73729 0.000527263 -0.159497 -0.164749 0.981861 2.60321 -1.182 0.624438 
0.119 0.939135 0.0268312 0.0727273 -0.334689 -0.712161 1.53864 0.910427 -1.42827 -2.73988 0.00074007 -0.159555 -0.163104 0.981167 2.6079 -1.15507 0.626093 
0.12 0.939307 0.0267648 0.0726647 -0.334225 -0.713588 1.5359 0.910428 -1.42692 -2.74246 0.000954263 -0.159613 -0.161425 0.980461 2.61254 -1.12817 0.627703 
0.121 0.939478 0.0266986 0.0726028 -0.333761 -0.715015 1.53316 0.910429 -1.42554 -2.74502 0.0011698 -0.159671 -0.159713 0.979743 2.61714 -1.10129 0.629266 
0.122 0.93965 0.0266326 0.0725418 -0.333297 -0.71644 1.53041 0.91043 -1.42414 -2.74755 0.00138664 -0.159729 -0.157967 0.979013 2.62169 -1.07443 0.630783 
0.123 0.93982 0.0265669 0.0724815 -0.332833 -0.717863 1.52766 0.910432 -1.42272 -2.75007 0.00160474 -0.159787 -0.156187 0.97827 2.62619 -1.0476 0.632251 
0.124 0.939991 0.0265014 0.0724222 -0.33237 -0.719285 1.52491 0.910433 -1.42128 -2.75257 0.00182405 -0.159846 -0.154374 0.977515 2.63065 -1.02079 0.633671 
0.125 0.940161 0.0264361 0.0723637 -0.331907 -0.720706 1.52216 0.910435 -1.41981 -2.75505 0.00204453 -0.159904 -0.152527 0.976748 2.63507 -0.994009 0.63504 
0.126 0.94033 0.0263711 0.072306 -0.331444 -0.722125 1.5194 0.910437 -1.41832 -2.75751 0.00226614 -0.159962 -0.150647 0.975969 2.63943 -0.96725 0.636359 
0.127 0.940499 0.0263063 0.0722493 -0.330982 -0.723542 1.51664 0.91044 -1.41681 -2.75995 0.00248882 -0.16002 -0.148733 0.975177 2.64375 -0.940516 0.637627 
0.128 0.940668 0.0262418 0.0721935 -0.330519 -0.724958 1.51388 0.910442 -1.41528 -2.76238 0.00271253 -0.160078 -0.146785 0.974374 2.64802 -0.913808 0.638842 
0.129 0.940836 0.0261776 0.0721386 -0.330057 -0.726373 1.51112 0.910445 -1.41372 -2.76478 0.00293722 -0.160136 -0.144804 0.973558 2.65225 -0.887126 0.640004 
0.13 0.941004 0.0261136 0.0720846 -0.329596 -0.727786 1.50835 0.910448 -1.41214 -2.76716 0.00316284 -0.160193 -0.142789 0.97273 2.65642 -0.86047 0.641112 
0.131 0.941171 0.0260499 0.0720316 -0.329134 -0.729197 1.50558 0.910451 -1.41054 -2.76952 0.00338934 -0.16025 -0.140741 0.971889 2.66055 -0.833841 0.642165 
0.132 0.941338 0.0259865 0.0719796 -0.328673 -0.730607 1.50281 0.910455 -1.40891 -2.77186 0.00361666 -0.160307 -0.138659 0.971037 2.66462 -0.807239 0.643161 
0.133 0.941505 0.0259233 0.0719285 -0.328212 -0.732015 1.50004 0.910459 -1.40727 -2.77419 0.00384476 -0.160363 -0.136543 0.970172 2.66865 -0.780664 0.644101 
0.134 0.941671 0.0258605 0.0718785 -0.327752 -0.733421 1.49726 0.910463 -1.4056 -2.77649 0.00407357 -0.160419 -0.134394 0.969296 2.67262 -0.754116 0.644982 
0.135 0.941836 0.0257979 0.0718295 -0.327291 -0.734826 1.49449 0.910467 -1.40391 -2.77877 0.00430305 -0.160474 -0.132211 0.968407 2.67655 -0.727597 0.645805 
0.136 0.942001 0.0257356 0.0717815 -0.326832 -0.736229 1.49171 0.910471 -1.4022 -2.78103 0.00453313 -0.160529 -0.129995 0.967506 2.68042 -0.701105 0.646568 
0.137 0.942166 0.0256736 0.0717346 -0.326372 -0.73763 1.48892 0.910476 -1.40047 -2.78328 0.00476377 -0.160583 -0.127745 0.966593 2.68424 -0.674643 0.64727 
0.138 0.94233 0.025612 0.0716888 -0.325913 -0.73903 1.48614 0.910481 -1.39871 -2.7855 0.0049949 -0.160637 -0.125461 0.965667 2.688 -0.648209 0.64791 
0.139 0.942494 0.0255506 0.071644 -0.325454 -0.740428 1.48335 0.910486 -1.39693 -2.7877 0.00522645 -0.160689 -0.123144 0.96473 2.69172 -0.621805 0.648488 
0.14 0.942657 0.0254896 0.0716004 -0.324995 -0.741824 1.48056 0.910491 -1.39514 -2.78988 0.00545839 -0.160741 -0.120793 0.96378 2.69538 -0.59543 0.649001 
0.141 0.94282 0.0254288 0.0715578 -0.324537 -0.743218 1.47777 0.910497 -1.39332 -2.79205 0.00569063 -0.160793 -0.118408 0.962819 2.69898 -0.569085 0.64945 
0.142 0.942982 0.0253684 0.0715164 -0.324079 -0.74461 1.47498 0.910503 -1.39148 -2.79419 0.00592312 -0.160843 -0.11599 0.961845 2.70253 -0.542771 0.649833 
0.143 0.943144 0.0253084 0.0714762 -0.323621 -0.746001 1.47218 0.910509 -1.38962 -2.79631 0.00615579 -0.160892 -0.113539 0.960859 2.70603 -0.516487 0.650149 
0.144 0.943305 0.0252486 0.0714371 -0.323164 -0.74739 1.46939 0.910515 -1.38774 -2.79841 0.00638859 -0.16094 -0.111053 0.959861 2.70947 -0.490235 0.650397 
0.145 0.943466 0.0251892 0.0713992 -0.322707 -0.748776 1.46659 0.910521 -1.38583 -2.80049 0.00662143 -0.160987 -0.108535 0.958851 2.71285 -0.464013 0.650576 
0.146 0.943626 0.0251302 0.0713625 -0.32225 -0.750161 1.46379 0.910528 -1.38391 -2.80255 0.00685427 -0.161034 -0.105982 0.957829 2.71618 -0.437824 0.650685 
0.147 0.943786 0.0250715 0.071327 -0.321794 -0.751544 1.46098 0.910535 -1.38197 -2.80459 0.00708702 -0.161078 -0.103396 0.956795 2.71944 -0.411666 0.650724 
0.148 0.943946 0.0250131 0.0712928 -0.321339 -0.752925 1.45818 0.910542 -1.38 -2.80661 0.00731962 -0.161122 -0.100776 0.955749 2.72265 -0.385541 0.650689 
0.149 0.944104 0.0249551 0.0712598 -0.320883 -0.754304 1.45537 0.91055 -1.37802 -2.8086 0.007552 -0.161164 -0.098123 0.954691 2.7258 -0.359449 0.650582 
0.15 0.944263 0.0248975 0.071228 -0.320428 -0.755681 1.45256 0.910557 -1.37601 -2.81058 0.00778409 -0.161205 -0.0954361 0.953621 2.72889 -0.333389 0.6504 
0.151 0.944421 0.0248403 0.0711976 -0.319974 -0.757056 1.44975 0.910565 -1.37399 -2.81254 0.00801581 -0.161245 -0.0927156 0.952539 2.73192 -0.307363 0.650143 
0.152 0.944578 0.0247834 0.0711684 -0.319519 -0.758429 1.44693 0.910573 -1.37194 -2.81447 0.00824709 -0.161282 -0.0899615 0.951445 2.73489 -0.28137 0.64981 
0.153 0.944735 0.0247269 0.0711405 -0.319066 -0.7598 1.44412 0.910582 -1.36988 -2.81639 0.00847785 -0.161319 -0.0871738 0.950338 2.7378 -0.255412 0.649398 
0.154 0.944892 0.0246708 0.071114 -0.318612 -0.761169 1.4413 0.91059 -1.36779 -2.81828 0.00870803 -0.161353 -0.0843525 0.94922 2.74065 -0.229488 0.648908 
0.155 0.945048 0.0246151 0.0710888 -0.318159 -0.762536 1.43848 0.910599 -1.36569 -2.82015 0.00893754 -0.161386 -0.0814975 0.94809 2.74343 -0.203599 0.648338 
0.156 0.945203 0.0245597 0.071065 -0.317707 -0.7639 1.43566 0.910608 -1.36356 -2.822 0.0091663 -0.161417 -0.078609 0.946948 2.74615 -0.177744 0.647687 
0.157 0.945358 0.0245048 0.0710426 -0.317255 -0.765263 1.43284 0.910618 -1.36142 -2.82383 0.00939423 -0.161447 -0.0756869 0.945794 2.7488 -0.151925 0.646953 
0.158 0.945513 0.0244503 0.0710215 -0.316803 -0.766623 1.43001 0.910627 -1.35926 -2.82564 0.00962125 -0.161474 -0.0727312 0.944628 2.75139 -0.126142 0.646136 
0.159 0.945666 0.0243962 0.0710019 -0.316352 -0.767981 1.42719 0.910637 -1.35708 -2.82743 0.00984729 -0.161499 -0.0697418 0.94345 2.75392 -0.100395 0.645234 
0.16 0.94582 0.0243425 0.0709836 -0.315901 -0.769337 1.42436 0.910647 -1.35488 -2.8292 0.0100722 -0.161523 -0.0667189 0.94226 2.75638 -0.0746835 0.644247 
0.161 0.945973 0.0242892 0.0709669 -0.315451 -0.770691 1.42153 0.910657 -1.35266 -2.83094 0.0102961 -0.161544 -0.0636624 0.941059 2.75877 -0.049009 0.643172 
0.162 0.946125 0.0242364 0.0709515 -0.315001 -0.772043 1.4187 0.910667 -1.35042 -2.83266 0.0105186 -0.161563 -0.0605723 0.939845 2.76109 -0.0233715 0.64201 
0.163 0.946277 0.024184 0.0709377 -0.314552 -0.773392 1.41586 0.910678 -1.34816 -2.83437 0.0107398 -0.161579 -0.0574486 0.93862 2.76335 0.00222874 0.640757 
0.164 0.946428 0.024132 0.0709253 -0.314103 -0.774739 1.41303 0.910689 -1.34588 -2.83605 0.0109596 -0.161593 -0.0542913 0.937382 2.76553 0.0277914 0.639415 
0.165 0.946579 0.0240805 0.0709144 -0.313654 -0.776084 1.41019 0.9107 -1.34359 -2.83771 0.0111779 -0.161605 -0.0511004 0.936133 2.76765 0.0533162 0.63798 
0.166 0.94673 0.0240294 0.0709051 -0.313206 -0.777426 1.40735 0.910711 -1.34128 -2.83935 0.0113946 -0.161614 -0.0478759 0.934872 2.76969 0.0788028 0.636452 
0.167 0.946879 0.0239788 0.0708973 -0.312759 -0.778766 1.40451 0.910723 -1.33895 -2.84096 0.0116096 -0.161621 -0.0446179 0.933599 2.77167 0.104251 0.634829 
0.168 0.947029 0.0239286 0.070891 -0.312312 -0.780104 1.40167 0.910734 -1.3366 -2.84256 0.0118229 -0.161625 -0.0413262 0.932314 2.77357 0.12966 0.633111 
0.169 0.947177 0.0238789 0.0708863 -0.311866 -0.781439 1.39883 0.910746 -1.33423 -2.84413 0.0120342 -0.161626 -0.038001 0.931018 2.7754 0.15503 0.631295 
0.17 0.947325 0.0238296 0.0708832 -0.31142 -0.782773 1.39598 0.910759 -1.33185 -2.84568 0.0122435 -0.161624 -0.0346421 0.92971 2.77716 0.180361 0.629382 
0.171 0.947473 0.0237809 0.0708817 -0.310974 -0.784103 1.39314 0.910771 -1.32945 -2.84721 0.0124508 -0.161619 -0.0312497 0.928389 2.77884 0.205652 0.627368 
0.172 0.94762 0.0237326 0.0708818 -0.310529 -0.785431 1.39029 0.910783 -1.32703 -2.84872 0.0126559 -0.161611 -0.0278237 0.927058 2.78044 0.230903 0.625254 
0.173 0.947767 0.0236848 0.0708835 -0.310085 -0.786757 1.38744 0.910796 -1.32459 -2.8502 0.0128588 -0.161601 -0.0243642 0.925714 2.78197 0.256114 0.623038 
0.174 0.947913 0.0236375 0.0708869 -0.309641 -0.788081 1.38459 0.910809 -1.32214 -2.85167 0.0130592 -0.161586 -0.020871 0.924359 2.78343 0.281284 0.620718 
0.175 0.948058 0.0235907 0.0708919 -0.309198 -0.789401 1.38174 0.910822 -1.31967 -2.85311 0.0132572 -0.161569 -0.0173443 0.922992 2.7848 0.306413 0.618292 
0.176 0.948203 0.0235444 0.0708986 -0.308755 -0.79072 1.37888 0.910836 -1.31718 -2.85453 0.0134526 -0.161548 -0.013784 0.921613 2.7861 0.331501 0.615761 
0.177 0.948348 0.0234986 0.070907 -0.308313 -0.792036 1.37603 0.910849 -1.31468 -2.85593 0.0136453 -0.161524 -0.0101902 0.920222 2.78732 0.356547 0.613122 
0.178 0.948491 0.0234533 0.0709171 -0.307871 -0.793349 1.37317 0.910863 -1.31216 -2.8573 0.0138352 -0.161496 -0.00656276 0.91882 2.78846 0.381552 0.610374 
0.179 0.948635 0.0234086 0.070929 -0.30743 -0.79466 1.37031 0.910877 -1.30962 -2.85865 0.0140222 -0.161465 -0.00290178 0.917406 2.78951 0.406514 0.607515 
0.18 0.948778 0.0233643 0.0709425 -0.306989 -0.795968 1.36745 0.910891 -1.30706 -2.85998 0.0142062 -0.16143 0.000792766 0.915981 2.79049 0.431435 0.604544 
0.181 0.94892 0.0233206 0.0709579 -0.306549 -0.797274 1.36459 0.910905 -1.30449 -2.86129 0.0143871 -0.161391 0.00452087 0.914544 2.79138 0.456312 0.60146 
0.182 0.949061 0.0232775 0.070975 -0.30611 -0.798577 1.36173 0.91092 -1.30191 -2.86258 0.0145647 -0.161348 0.00828253 0.913095 2.79219 0.481147 0.598261 
0.183 0.949202 0.0232349 0.0709939 -0.305671 -0.799878 1.35887 0.910934 -1.29931 -2.86384 0.014739 -0.161301 0.0120777 0.911635 2.79292 0.505939 0.594947 
0.184 0.949343 0.0231928 0.0710146 -0.305233 -0.801176 1.356 0.910949 -1.29669 -2.86508 0.0149099 -0.16125 0.0159065 0.910163 2.79356 0.530687 0.591514 
0.185 0.949483 0.0231513 0.0710371 -0.304795 -0.802471 1.35314 0.910964 -1.29406 -2.8663 0.0150771 -0.161195 0.0197688 0.908679 2.79411 0.555392 0.587962 
0.186 0.949622 0.0231103 0.0710614 -0.304358 -0.803764 1.35027 0.910979 -1.29141 -2.8675 0.0152407 -0.161135 0.0236647 0.907184 2.79458 0.580052 0.58429 
0.187 0.949761 0.0230699 0.0710876 -0.303922 -0.805054 1.3474 0.910995 -1.28874 -2.86867 0.0154004 -0.161071 0.0275941 0.905677 2.79496 0.604669 0.580496 
0.188 0.949899 0.0230301 0.0711157 -0.303486 -0.806342 1.34453 0.91101 -1.28606 -2.86983 0.0155562 -0.161003 0.031557 0.904159 2.79525 0.629241 0.576578 
0.189 0.950037 0.0229909 0.0711457 -0.303051 -0.807626 1.34166 0.911026 -1.28337 -2.87095 0.0157079 -0.16093 0.0355535 0.90263 2.79545 0.653768 0.572535 
0.19 0.950174 0.0229522 0.0711775 -0.302616 -0.808908 1.33879 0.911042 -1.28066 -2.87206 0.0158554 -0.160852 0.0395835 0.901089 2.79556 0.678251 0.568366 
0.191 0.95031 0.0229141 0.0712113 -0.302182 -0.810188 1.33592 0.911058 -1.27794 -2.87314 0.0159987 -0.16077 0.043647 0.899536 2.79558 0.702688 0.564068 
0.192 0.950446 0.0228767 0.071247 -0.301749 -0.811464 1.33304 0.911074 -1.2752 -2.8742 0.0161375 -0.160682 0.047744 0.897972 2.7955 0.72708 0.559641 
0.193 0.950582 0.0228398 0.0712846 -0.301316 -0.812738 1.33017 0.91109 -1.27245 -2.87524 0.0162717 -0.16059 0.0518746 0.896396 2.79534 0.751426 0.555082 
0.194 0.950716 0.0228035 0.0713242 -0.300884 -0.814009 1.32729 0.911106 -1.26968 -2.87626 0.0164012 -0.160492 0.0560387 0.89481 2.79508 0.775726 0.550391 
0.195 0.95085 0.0227679 0.0713658 -0.300453 -0.815277 1.32442 0.911123 -1.2669 -2.87725 0.0165259 -0.160389 0.0602362 0.893211 2.79472 0.79998 0.545565 
0.196 0.950984 0.0227329 0.0714093 -0.300022 -0.816543 1.32154 0.911139 -1.2641 -2.87822 0.0166457 -0.160281 0.0644673 0.891602 2.79427 0.824188 0.540603 
0.197 0.951117 0.0226985 0.0714549 -0.299592 -0.817806 1.31866 0.911156 -1.26129 -2.87916 0.0167603 -0.160168 0.0687319 0.889981 2.79372 0.848349 0.535503 
0.198 0.951249 0.0226647 0.0715025 -0.299163 -0.819066 1.31578 0.911173 -1.25847 -2.88008 0.0168697 -0.160049 0.07303 0.888348 2.79307 0.872464 0.530264 
0.199 0.951381 0.0226316 0.0715521 -0.298734 -0.820323 1.3129 0.91119 -1.25564 -2.88098 0.0169738 -0.159924 0.0773616 0.886705 2.79232 0.896532 0.524885 
0.2 0.951512 0.0225991 0.0716038 -0.298306 -0.821577 1.31002 0.911207 -1.25279 -2.88186 0.0170724 -0.159794 0.0817267 0.88505 2.79148 0.920552 0.519362 
0.201 0.951643 0.0225673 0.0716575 -0.297878 -0.822828 1.30714 0.911224 -1.24993 -2.88271 0.0171666 -0.159662 0.0860899 0.883402 2.77718 0.930666 0.514331 
0.202 0.951773 0.0225361 0.0717133 -0.297452 -0.824077 1.30425 0.911241 -1.24709 -2.88355 0.0172577 -0.159535 0.0904158 0.88178 2.76285 0.940761 0.509273 
0.203 0.951902 0.0225056 0.0717712 -0.297026 -0.825322 1.30137 0.911258 -1.24425 -2.88436 0.0173456 -0.159412 0.0947044 0.880183 2.74849 0.950837 0.50419 
0.204 0.952031 0.0224757 0.071831 -0.2966 -0.826565 1.29849 0.911276 -1.24141 -2.88516 0.0174304 -0.159293 0.0989557 0.878612 2.73408 0.960895 0.499082 
0.205 0.952159 0.0224464 0.0718929 -0.296176 -0.827805 1.2956 0.911293 -1.23858 -2.88594 0.0175121 -0.159178 0.10317 0.877067 2.71965 0.970934 0.493949 
0.206 0.952287 0.0224177 0.0719567 -0.295751 -0.829042 1.29271 0.911311 -1.23576 -2.8867 0.0175904 -0.159067 0.107347 0.875548 2.70518 0.980955 0.488793 
0.207 0.952414 0.0223897 0.0720225 -0.295328 -0.830277 1.28983 0.911328 -1.23294 -2.88744 0.0176656 -0.15896 0.111486 0.874054 2.69068 0.990958 0.483614 
0.208 0.952541 0.0223622 0.0720903 -0.294905 -0.831508 1.28694 0.911346 -1.23013 -2.88815 0.0177374 -0.158857 0.115588 0.872586 2.67615 1.00094 0.478413 
0.209 0.952667 0.0223354 0.0721599 -0.294483 -0.832737 1.28405 0.911364 -1.22733 -2.88885 0.017806 -0.158757 0.119653 0.871144 2.6616 1.01091 0.473191 
0.21 0.952792 0.0223091 0.0722315 -0.294061 -0.833963 1.28116 0.911382 -1.22453 -2.88954 0.0178712 -0.158661 0.123681 0.869727 2.64701 1.02086 0.467949 
0.211 0.952917 0.0222834 0.072305 -0.29364 -0.835186 1.27827 0.9114 -1.22174 -2.8902 0.0179331 -0.158569 0.127671 0.868336 2.6324 1.0308 0.462687 
0.212 0.953042 0.0222582 0.0723804 -0.293219 -0.836406 1.27538 0.911417 -1.21895 -2.89084 0.0179916 -0.158481 0.131624 0.866971 2.61777 1.04072 0.457406 
0.213 0.953165 0.0222337 0.0724576 -0.292799 -0.837624 1.27249 0.911436 -1.21617 -2.89146 0.0180467 -0.158396 0.13554 0.865632 2.60311 1.05062 0.452107 
0.214 0.953289 0.0222097 0.0725367 -0.29238 -0.838839 1.2696 0.911454 -1.2134 -2.89207 0.0180984 -0.158315 0.139418 0.864318 2.58843 1.06051 0.44679 
0.215 0.953411 0.0221862 0.0726176 -0.291961 -0.840051 1.26671 0.911472 -1.21063 -2.89265 0.0181467 -0.158237 0.143259 0.86303 2.57373 1.07038 0.441458 
0.216 0.953534 0.0221633 0.0727004 -0.291542 -0.84126 1.26381 0.91149 -1.20787 -2.89322 0.0181915 -0.158163 0.147063 0.861768 2.55901 1.08024 0.436109 
0.217 0.953656 0.0221409 0.0727849 -0.291124 -0.842466 1.26092 0.911508 -1.20512 -2.89376 0.0182328 -0.158092 0.150829 0.860532 2.54427 1.09008 0.430745 
0.218 0.953777 0.0221191 0.0728712 -0.290707 -0.84367 1.25802 0.911526 -1.20238 -2.89429 0.0182707 -0.158025 0.154558 0.859321 2.52952 1.09991 0.425368 
0.219 0.953898 0.0220978 0.0729592 -0.29029 -0.844871 1.25513 0.911545 -1.19964 -2.8948 0.018305 -0.157961 0.15825 0.858137 2.51475 1.10973 0.419977 
0.22 0.954018 0.0220769 0.073049 -0.289873 -0.846069 1.25224 0.911563 -1.19691 -2.89529 0.0183358 -0.1579 0.161905 0.856978 2.49997 1.11953 0.414573 
0.221 0.954138 0.0220566 0.0731405 -0.289457 -0.847265 1.24934 0.911581 -1.19418 -2.89576 0.0183631 -0.157842 0.165522 0.855845 2.48517 1.12931 0.409158 
0.222 0.954257 0.0220369 0.0732337 -0.289041 -0.848458 1.24644 0.9116 -1.19146 -2.89621 0.0183868 -0.157788 0.169102 0.854738 2.47037 1.13909 0.403732 
0.223 0.954376 0.0220175 0.0733287 -0.288626 -0.849648 1.24355 0.911618 -1.18875 -2.89664 0.018407 -0.157737 0.172644 0.853656 2.45555 1.14885 0.398296 
0.224 0.954494 0.0219987 0.0734252 -0.288211 -0.850835 1.24065 0.911636 -1.18605 -2.89705 0.0184236 -0.157689 0.176149 0.852601 2.44073 1.1586 0.392851 
0.225 0.954612 0.0219804 0.0735235 -0.287797 -0.85202 1.23775 0.911655 -1.18335 -2.89745 0.0184366 -0.157644 0.179617 0.851571 2.4259 1.16834 0.387397 
0.226 0.954729 0.0219625 0.0736233 -0.287383 -0.853202 1.23486 0.911673 -1.18066 -2.89782 0.018446 -0.157603 0.183048 0.850568 2.41106 1.17807 0.381936 
0.227 0.954846 0.0219452 0.0737248 -0.286969 -0.854381 1.23196 0.911692 -1.17798 -2.89818 0.0184517 -0.157564 0.186441 0.84959 2.39622 1.18778 0.376468 
0.228 0.954963 0.0219282 0.0738279 -0.286556 -0.855558 1.22906 0.91171 -1.1753 -2.89851 0.0184539 -0.157528 0.189797 0.848638 2.38138 1.19748 0.370994 
0.229 0.955079 0.0219118 0.0739326 -0.286143 -0.856732 1.22616 0.911729 -1.17264 -2.89883 0.0184525 -0.157496 0.193115 0.847712 2.36654 1.20718 0.365515 
0.23 0.955195 0.0218957 0.0740389 -0.28573 -0.857903 1.22326 0.911747 -1.16998 -2.89913 0.0184474 -0.157466 0.196397 0.846811 2.35169 1.21686 0.360032 
0.231 0.95531 0.0218802 0.0741467 -0.285318 -0.859072 1.22036 0.911766 -1.16732 -2.89941 0.0184387 -0.15744 0.199641 0.845937 2.33685 1.22654 0.354546 
0.232 0.955425 0.021865 0.074256 -0.284906 -0.860238 1.21746 0.911784 -1.16468 -2.89967 0.0184263 -0.157416 0.202847 0.845089 2.32201 1.2362 0.349057 
0.233 0.955539 0.0218503 0.0743668 -0.284494 -0.861401 1.21456 0.911802 -1.16204 -2.89991 0.0184103 -0.157395 0.206016 0.844266 2.30718 1.24585 0.343566 
0.234 0.955653 0.021836 0.0744792 -0.284083 -0.862562 1.21166 0.911821 -1.15941 -2.90014 0.0183906 -0.157377 0.209148 0.84347 2.29235 1.2555 0.338075 
0.235 0.955767 0.0218221 0.074593 -0.283672 -0.86372 1.20876 0.911839 -1.15679 -2.90034 0.0183673 -0.157361 0.212243 0.842699 2.27753 1.26514 0.332584 
0.236 0.95588 0.0218087 0.0747083 -0.283261 -0.864876 1.20586 0.911858 -1.15417 -2.90053 0.0183403 -0.157349 0.2153 0.841954 2.26272 1.27477 0.327095 
0.237 0.955992 0.0217956 0.074825 -0.282851 -0.866028 1.20296 0.911876 -1.15156 -2.90069 0.0183097 -0.157339 0.218319 0.841236 2.24792 1.28439 0.321607 
0.238 0.956105 0.021783 0.0749431 -0.282441 -0.867179 1.20006 0.911894 -1.14896 -2.90084 0.0182754 -0.157332 0.221302 0.840543 2.23313 1.294 0.316121 
0.239 0.956217 0.0217707 0.0750627 -0.282031 -0.868326 1.19716 0.911912 -1.14637 -2.90097 0.0182375 -0.157328 0.224247 0.839876 2.21835 1.30361 0.31064 
0.24 0.956328 0.0217588 0.0751836 -0.281621 -0.869471 1.19426 0.911931 -1.14379 -2.90108 0.0181959 -0.157327 0.227155 0.839235 2.20359 1.31321 0.305163 
0.241 0.956439 0.0217473 0.075306 -0.281211 -0.870614 1.19136 0.911949 -1.14121 -2.90117 0.0181507 -0.157328 0.230025 0.83862 2.18884 1.32281 0.299692 
0.242 0.95655 0.0217362 0.0754297 -0.280802 -0.871754 1.18846 0.911967 -1.13864 -2.90125 0.0181018 -0.157332 0.232858 0.838031 2.17412 1.3324 0.294227 
0.243 0.956661 0.0217254 0.0755547 -0.280393 -0.872891 1.18556 0.911985 -1.13608 -2.9013 0.0180492 -0.157338 0.235653 0.837468 2.15941 1.34198 0.28877 
0.244 0.956771 0.021715 0.075681 -0.279984 -0.874026 1.18265 0.912003 -1.13353 -2.90134 0.0179931 -0.157347 0.238412 0.836931 2.14472 1.35156 0.28332 
0.245 0.95688 0.021705 0.0758086 -0.279575 -0.875158 1.17975 0.912021 -1.13098 -2.90136 0.0179333 -0.157359 0.241132 0.83642 2.13005 1.36113 0.27788 
0.246 0.95699 0.0216952 0.0759376 -0.279166 -0.876288 1.17685 0.912039 -1.12844 -2.90136 0.0178698 -0.157373 0.243816 0.835935 2.11541 1.3707 0.27245 
0.247 0.957099 0.0216859 0.0760678 -0.278758 -0.877415 1.17395 0.912057 -1.12591 -2.90134 0.0178028 -0.15739 0.246462 0.835477 2.10079 1.38027 0.267032 
0.248 0.957207 0.0216769 0.0761992 -0.278349 -0.87854 1.17105 0.912075 -1.12339 -2.9013 0.0177322 -0.157409 0.24907 0.835044 2.0862 1.38983 0.261625 
0.249 0.957315 0.0216682 0.0763319 -0.277941 -0.879662 1.16815 0.912092 -1.12087 -2.90125 0.0176579 -0.157431 0.251642 0.834637 2.07164 1.39939 0.256231 
0.25 0.957423 0.0216598 0.0764658 -0.277533 -0.880782 1.16525 0.91211 -1.11836 -2.90117 0.0175801 -0.157455 0.254176 0.834256 2.05711 1.40895 0.250851 
0.251 0.957531 0.0216518 0.0766009 -0.277125 -0.881899 1.16234 0.912127 -1.11587 -2.90108 0.0174987 -0.157482 0.256672 0.833901 2.04261 1.4185 0.245486 
0.252 0.957638 0.021644 0.0767371 -0.276717 -0.883013 1.15944 0.912145 -1.11337 -2.90097 0.0174137 -0.157512 0.259131 0.833572 2.02814 1.42805 0.240136 
0.253 0.957745 0.0216366 0.0768746 -0.276309 -0.884125 1.15654 0.912162 -1.11089 -2.90084 0.0173252 -0.157544 0.261553 0.833269 2.0137 1.4376 0.234804 
0.254 0.957852 0.0216295 0.0770131 -0.275901 -0.885235 1.15364 0.91218 -1.10841 -2.90069 0.0172332 -0.157578 0.263937 0.832992 1.99931 1.44715 0.229489 
0.255 0.957958 0.0216226 0.0771528 -0.275493 -0.886342 1.15074 0.912197 -1.10595 -2.90053 0.0171376 -0.157615 0.266284 0.832741 1.98495 1.4567 0.224192 
0.256 0.958064 0.0216161 0.0772936 -0.275085 -0.887447 1.14784 0.912214 -1.10349 -2.90034 0.0170385 -0.157655 0.268594 0.832517 1.97062 1.46625 0.218916 
0.257 0.95817 0.0216098 0.0774355 -0.274677 -0.888549 1.14494 0.912231 -1.10103 -2.90014 0.016936 -0.157696 0.270866 0.832318 1.95634 1.47579 0.21366 
0.258 0.958275 0.0216038 0.0775785 -0.27427 -0.889649 1.14204 0.912248 -1.09859 -2.89992 0.0168299 -0.157741 0.2731 0.832145 1.9421 1.48534 0.208426 
0.259 0.95838 0.0215981 0.0777225 -0.273862 -0.890746 1.13914 0.912264 -1.09615 -2.89969 0.0167205 -0.157787 0.275298 0.831999 1.92791 1.49489 0.203214 
0.26 0.958485 0.0215927 0.0778676 -0.273454 -0.891841 1.13624 0.912281 -1.09372 -2.89943 0.0166075 -0.157837 0.277457 0.831878 1.91376 1.50444 0.198026 
0.261 0.958589 0.0215875 0.0780136 -0.273046 -0.892934 1.13334 0.912298 -1.0913 -2.89916 0.0164912 -0.157888 0.27958 0.831784 1.89965 1.51399 0.192862 
0.262 0.958694 0.0215825 0.0781607 -0.272638 -0.894024 1.13044 0.912314 -1.08889 -2.89887 0.0163715 -0.157942 0.281665 0.831715 1.8856 1.52355 0.187724 
0.263 0.958798 0.0215778 0.0783088 -0.27223 -0.895112 1.12754 0.91233 -1.08648 -2.89856 0.0162484 -0.157999 0.283712 0.831673 1.87159 1.5331 0.182613 
0.264 0.958901 0.0215734 0.0784578 -0.271822 -0.896197 1.12465 0.912347 -1.08408 -2.89823 0.016122 -0.158058 0.285722 0.831657 1.85764 1.54266 0.177529 
0.265 0.959005 0.0215692 0.0786078 -0.271414 -0.89728 1.12175 0.912363 -1.08169 -2.89788 0.0159922 -0.158119 0.287695 0.831666 1.84374 1.55222 0.172474 
0.266 0.959108 0.0215652 0.0787587 -0.271006 -0.89836 1.11885 0.912379 -1.07931 -2.89752 0.0158592 -0.158183 0.28963 0.831702 1.8299 1.56179 0.167448 
0.267 0.959211 0.0215615 0.0789105 -0.270598 -0.899438 1.11595 0.912394 -1.07694 -2.89714 0.0157229 -0.15825 0.291528 0.831764 1.81611 1.57136 0.162453 
0.268 0.959313 0.0215579 0.0790632 -0.27019 -0.900514 1.11306 0.91241 -1.07457 -2.89674 0.0155833 -0.158318 0.293389 0.831852 1.80238 1.58093 0.15749 
0.269 0.959416 0.0215546 0.0792168 -0.269781 -0.901588 1.11016 0.912426 -1.07221 -2.89633 0.0154405 -0.15839 0.295211 0.831966 1.78871 1.59051 0.152559 
0.27 0.959518 0.0215515 0.0793712 -0.269372 -0.902659 1.10726 0.912441 -1.06986 -2.89589 0.0152945 -0.158463 0.296997 0.832106 1.7751 1.6001 0.147662 
0.271 0.95962 0.0215486 0.0795265 -0.268964 -0.903727 1.10437 0.912456 -1.06751 -2.89544 0.0151454 -0.158539 0.298745 0.832273 1.76155 1.60969 0.1428 
0.272 0.959721 0.0215459 0.0796826 -0.268555 -0.904794 1.10147 0.912471 -1.06517 -2.89497 0.0149931 -0.158618 0.300456 0.832465 1.74807 1.61928 0.137974 
0.273 0.959823 0.0215434 0.0798395 -0.268146 -0.905858 1.09858 0.912486 -1.06284 -2.89449 0.0148377 -0.158699 0.302129 0.832683 1.73465 1.62888 0.133185 
0.274 0.959924 0.0215411 0.0799972 -0.267736 -0.906919 1.09568 0.912501 -1.06052 -2.89398 0.0146793 -0.158783 0.303764 0.832928 1.72131 1.63849 0.128433 
0.275 0.960025 0.021539 0.0801557 -0.267327 -0.907979 1.09279 0.912515 -1.05821 -2.89346 0.0145178 -0.158869 0.305363 0.833198 1.70803 1.64811 0.12372 
0.276 0.960125 0.021537 0.0803149 -0.266917 -0.909036 1.0899 0.91253 -1.0559 -2.89292 0.0143533 -0.158958 0.306923 0.833495 1.69482 1.65773 0.119048 
0.277 0.960226 0.0215352 0.0804748 -0.266507 -0.910091 1.087 0.912544 -1.0536 -2.89237 0.0141858 -0.159049 0.308447 0.833817 1.68169 1.66737 0.114416 
0.278 0.960326 0.0215336 0.0806355 -0.266097 -0.911143 1.08411 0.912558 -1.05131 -2.89179 0.0140154 -0.159143 0.309932 0.834166 1.66863 1.67701 0.109827 
0.279 0.960426 0.0215321 0.0807968 -0.265687 -0.912193 1.08122 0.912572 -1.04902 -2.8912 0.0138421 -0.159239 0.311381 0.834541 1.65565 1.68666 0.10528 
0.28 0.960526 0.0215308 0.0809589 -0.265276 -0.913241 1.07833 0.912586 -1.04674 -2.8906 0.013666 -0.159338 0.312792 0.834941 1.64274 1.69632 0.100778 
0.281 0.960626 0.0215296 0.0811216 -0.264865 -0.914287 1.07544 0.9126 -1.04447 -2.88997 0.013487 -0.159439 0.314165 0.835368 1.62992 1.70599 0.0963213 
0.282 0.960726 0.0215286 0.0812849 -0.264454 -0.91533 1.07255 0.912613 -1.04221 -2.88933 0.0133052 -0.159543 0.315501 0.835821 1.61717 1.71567 0.0919108 
0.283 0.960825 0.0215277 0.0814489 -0.264042 -0.916371 1.06966 0.912626 -1.03995 -2.88867 0.0131206 -0.15965 0.316799 0.8363 1.60451 1.72536 0.0875479 
0.284 0.960924 0.021527 0.0816134 -0.26363 -0.91741 1.06677 0.912639 -1.0377 -2.88799 0.0129334 -0.159759 0.31806 0.836805 1.59194 1.73506 0.0832334 
0.285 0.961023 0.0215264 0.0817786 -0.263218 -0.918446 1.06388 0.912652 -1.03546 -2.8873 0.0127435 -0.159871 0.319284 0.837336 1.57945 1.74477 0.0789685 
0.286 0.961122 0.0215259 0.0819443 -0.262806 -0.919481 1.061 0.912665 -1.03322 -2.88659 0.0125509 -0.159986 0.32047 0.837894 1.56705 1.75449 0.0747544 
0.287 0.96122 0.0215255 0.0821106 -0.262393 -0.920513 1.05811 0.912677 -1.03099 -2.88587 0.0123558 -0.160104 0.321618 0.838477 1.55474 1.76423 0.070592 
0.288 0.961319 0.0215252 0.0822774 -0.26198 -0.921543 1.05523 0.912689 -1.02877 -2.88512 0.0121581 -0.160224 0.322729 0.839086 1.54252 1.77398 0.0664825 
0.289 0.961417 0.021525 0.0824448 -0.261566 -0.92257 1.05234 0.912701 -1.02655 -2.88436 0.0119579 -0.160347 0.323803 0.839722 1.5304 1.78374 0.062427 
0.29 0.961515 0.021525 0.0826126 -0.261152 -0.923596 1.04946 0.912713 -1.02434 -2.88359 0.0117552 -0.160473 0.324839 0.840383 1.51837 1.79352 0.0584266 
0.291 0.961613 0.021525 0.0827809 -0.260738 -0.924619 1.04657 0.912725 -1.02214 -2.88279 0.0115502 -0.160601 0.325837 0.84107 1.50644 1.80331 0.0544823 
0.292 0.961711 0.0215251 0.0829497 -0.260323 -0.92564 1.04369 0.912736 -1.01994 -2.88198 0.0113427 -0.160733 0.326798 0.841784 1.4946 1.81311 0.0505953 
0.293 0.961809 0.0215253 0.0831189 -0.259908 -0.926659 1.04081 0.912748 -1.01775 -2.88116 0.011133 -0.160867 0.327722 0.842523 1.48287 1.82293 0.0467667 
0.294 0.961906 0.0215256 0.0832886 -0.259492 -0.927676 1.03793 0.912759 -1.01557 -2.88031 0.010921 -0.161004 0.328608 0.843289 1.47124 1.83277 0.0429976 
0.295 0.962004 0.0215259 0.0834586 -0.259076 -0.92869 1.03505 0.912769 -1.01339 -2.87945 0.0107067 -0.161144 0.329456 0.84408 1.45971 1.84262 0.0392891 
0.296 0.962101 0.0215264 0.0836291 -0.25866 -0.929702 1.03217 0.91278 -1.01122 -2.87858 0.0104903 -0.161287 0.330267 0.844898 1.44829 1.85249 0.0356423 
0.297 0.962198 0.0215269 0.0837999 -0.258243 -0.930713 1.02929 0.91279 -1.00905 -2.87768 0.0102718 -0.161433 0.331041 0.845741 1.43698 1.86237 0.0320583 
0.298 0.962295 0.0215274 0.0839711 -0.257825 -0.931721 1.02641 0.912801 -1.00689 -2.87678 0.0100512 -0.161583 0.331777 0.846611 1.42577 1.87227 0.0285383 
0.299 0.962392 0.021528 0.0841426 -0.257407 -0.932726 1.02354 0.912811 -1.00474 -2.87585 0.00982852 -0.161735 0.332475 0.847507 1.41468 1.88219 0.0250833 
0.3 0.962489 0.0215286 0.0843144 -0.256989 -0.93373 1.02066 0.91282 -1.00259 -2.87491 0.00960392 -0.16189 0.333136 0.848428 1.4037 1.89212 0.0216946 
0.301 0.962585 0.0215293 0.0844866 -0.25657 -0.934732 1.01779 0.91283 -1.00045 -2.87395 0.00937739 -0.162049 0.333759 0.849376 1.39284 1.90208 0.0183731 
0.302 0.962682 0.02153 0.084659 -0.25615 -0.935731 1.01492 0.912839 -0.998316 -2.87298 0.009149 -0.16221 0.334345 0.850349 1.38209 1.91205 0.0151201 
0.303 0.962778 0.0215308 0.0848317 -0.25573 -0.936728 1.01204 0.912848 -0.996186 -2.87199 0.00891881 -0.162375 0.334894 0.851349 1.37146 1.92204 0.0119367 
0.304 0.962875 0.0215316 0.0850046 -0.25531 -0.937723 1.00917 0.912857 -0.994061 -2.87098 0.00868686 -0.162543 0.335404 0.852374 1.36095 1.93205 0.00882403 
0.305 0.962971 0.0215324 0.0851778 -0.254889 -0.938716 1.0063 0.912865 -0.991941 -2.86996 0.00845321 -0.162715 0.335878 0.853426 1.35057 1.94208 0.00578319 
0.306 0.963067 0.0215332 0.0853511 -0.254467 -0.939707 1.00343 0.912874 -0.989827 -2.86892 0.00821792 -0.16289 0.336314 0.854503 1.3403 1.95213 0.00281532 
0.307 0.963163 0.021534 0.0855247 -0.254045 -0.940696 1.00056 0.912882 -0.987718 -2.86787 0.00798105 -0.163068 0.336712 0.855606 1.33017 1.96221 -7.84149e-05 
0.308 0.963259 0.0215348 0.0856984 -0.253622 -0.941683 0.997696 0.91289 -0.985614 -2.8668 0.00774265 -0.163249 0.337072 0.856735 1.32016 1.9723 -0.00289689 
0.309 0.963355 0.0215357 0.0858723 -0.253198 -0.942667 0.99483 0.912897 -0.983515 -2.86572 0.00750279 -0.163434 0.337396 0.857891 1.31028 1.98241 -0.00563895 
0.31 0.963451 0.0215365 0.0860464 -0.252774 -0.94365 0.991964 0.912905 -0.981421 -2.86462 0.00726152 -0.163623 0.337681 0.859072 1.30054 1.99255 -0.00830347 
0.311 0.963547 0.0215373 0.0862205 -0.252349 -0.94463 0.9891 0.912912 -0.979332 -2.8635 0.0070189 -0.163815 0.337929 0.860279 1.29092 2.00271 -0.0108893 
0.312 0.963642 0.0215381 0.0863948 -0.251923 -0.945608 0.986237 0.912919 -0.977247 -2.86237 0.006775 -0.164011 0.33814 0.861512 1.28144 2.01289 -0.0133952 
0.313 0.963738 0.0215389 0.0865691 -0.251497 -0.946585 0.983376 0.912925 -0.975167 -2.86122 0.00652987 -0.164211 0.338313 0.86277 1.2721 2.0231 -0.0158202 
0.314 0.963834 0.0215396 0.0867435 -0.25107 -0.947559 0.980515 0.912932 -0.973091 -2.86006 0.00628358 -0.164414 0.338449 0.864055 1.2629 2.03333 -0.018163 
0.315 0.963929 0.0215403 0.086918 -0.250643 -0.948531 0.977655 0.912938 -0.97102 -2.85888 0.0060362 -0.164621 0.338546 0.865366 1.25384 2.04358 -0.0204225 
0.316 0.964025 0.021541 0.0870925 -0.250215 -0.949501 0.974797 0.912944 -0.968952 -2.85769 0.00578778 -0.164832 0.338607 0.866702 1.24492 2.05386 -0.0225975 
0.317 0.96412 0.0215416 0.087267 -0.249786 -0.950469 0.97194 0.91295 -0.966889 -2.85648 0.0055384 -0.165046 0.33863 0.868064 1.23615 2.06416 -0.024687 
0.318 0.964215 0.0215422 0.0874415 -0.249356 -0.951434 0.969084 0.912955 -0.96483 -2.85526 0.00528811 -0.165265 0.338615 0.869452 1.22752 2.07449 -0.0266896 
0.319 0.964311 0.0215427 0.087616 -0.248926 -0.952398 0.96623 0.91296 -0.962775 -2.85402 0.00503698 -0.165488 0.338563 0.870866 1.21905 2.08484 -0.0286043 
0.32 0.964406 0.0215432 0.0877904 -0.248495 -0.95336 0.963376 0.912965 -0.960723 -2.85276 0.00478508 -0.165714 0.338473 0.872306 1.21072 2.09522 -0.0304298 
0.321 0.964501 0.0215436 0.0879648 -0.248063 -0.95432 0.960524 0.91297 -0.958675 -2.8515 0.00453248 -0.165945 0.338346 0.873771 1.20255 2.10563 -0.0321651 
0.322 0.964597 0.0215439 0.0881391 -0.24763 -0.955277 0.957673 0.912974 -0.95663 -2.85021 0.00427924 -0.16618 0.338181 0.875263 1.19453 2.11606 -0.033809 
0.323 0.964692 0.0215442 0.0883133 -0.247196 -0.956233 0.954824 0.912978 -0.954589 -2.84891 0.00402543 -0.166419 0.337979 0.87678 1.18666 2.12652 -0.0353602 
0.324 0.964787 0.0215444 0.0884873 -0.246762 -0.957187 0.951975 0.912982 -0.952551 -2.8476 0.00377113 -0.166663 0.337739 0.878323 1.17896 2.13701 -0.0368177 
0.325 0.964882 0.0215445 0.0886613 -0.246327 -0.958138 0.949128 0.912986 -0.950515 -2.84627 0.0035164 -0.166911 0.337461 0.879891 1.17141 2.14752 -0.0381802 
0.326 0.964978 0.0215445 0.0888351 -0.245891 -0.959088 0.946283 0.912989 -0.948483 -2.84493 0.00326132 -0.167163 0.337146 0.881486 1.16403 2.15807 -0.0394466 
0.327 0.965073 0.0215444 0.0890087 -0.245454 -0.960035 0.943439 0.912992 -0.946454 -2.84357 0.00300595 -0.16742 0.336794 0.883106 1.15682 2.16864 -0.0406157 
0.328 0.965168 0.0215442 0.0891822 -0.245017 -0.96098 0.940596 0.912995 -0.944427 -2.8422 0.00275036 -0.167681 0.336404 0.884752 1.14976 2.17925 -0.0416864 
0.329 0.965263 0.0215438 0.0893555 -0.244578 -0.961924 0.937754 0.912998 -0.942402 -2.84081 0.00249464 -0.167947 0.335976 0.886423 1.14288 2.18988 -0.0426573 
0.33 0.965358 0.0215434 0.0895285 -0.244139 -0.962865 0.934914 0.913 -0.94038 -2.83941 0.00223885 -0.168218 0.335511 0.88812 1.13617 2.20054 -0.0435275 
0.331 0.965454 0.0215429 0.0897013 -0.243698 -0.963805 0.932075 0.913002 -0.93836 -2.83799 0.00198307 -0.168493 0.335009 0.889843 1.12963 2.21124 -0.0442956 
0.332 0.965549 0.0215422 0.0898738 -0.243257 -0.964742 0.929238 0.913004 -0.936341 -2.83656 0.00172737 -0.168774 0.334468 0.891592 1.12327 2.22196 -0.0449606 
0.333 0.965644 0.0215414 0.0900461 -0.242815 -0.965677 0.926402 0.913006 -0.934325 -2.83512 0.00147182 -0.169059 0.333891 0.893366 1.11708 2.23272 -0.0455211 
0.334 0.965739 0.0215405 0.090218 -0.242372 -0.966611 0.923568 0.913007 -0.93231 -2.83366 0.00121651 -0.169349 0.333275 0.895166 1.11107 2.24351 -0.0459761 
0.335 0.965835 0.0215394 0.0903897 -0.241928 -0.967542 0.920735 0.913008 -0.930297 -2.83219 0.000961514 -0.169644 0.332622 0.896991 1.10524 2.25433 -0.0463243 
0.336 0.96593 0.0215382 0.090561 -0.241483 -0.968471 0.917903 0.913009 -0.928285 -2.8307 0.000706901 -0.169945 0.331932 0.898842 1.09959 2.26518 -0.0465646 
0.337 0.966025 0.0215368 0.090732 -0.241037 -0.969399 0.915074 0.91301 -0.926275 -2.8292 0.000452753 -0.17025 0.331204 0.900718 1.09413 2.27607 -0.0466958 
0.338 0.966121 0.0215353 0.0909026 -0.240591 -0.970324 0.912245 0.91301 -0.924265 -2.82768 0.000199149 -0.170561 0.330439 0.902621 1.08885 2.28698 -0.0467167 
0.339 0.966216 0.0215336 0.0910728 -0.240143 -0.971247 0.909418 0.91301 -0.922256 -2.82615 -5.3833e-05 -0.170877 0.329636 0.904548 1.08376 2.29794 -0.046626 
0.34 0.966312 0.0215317 0.0912426 -0.239694 -0.972168 0.906593 0.91301 -0.920248 -2.82461 -0.000306112 -0.171199 0.328795 0.906501 1.07887 2.30892 -0.0464226 
0.341 0.966407 0.0215296 0.091412 -0.239244 -0.973088 0.903769 0.913009 -0.91824 -2.82305 -0.000557608 -0.171526 0.327918 0.90848 1.07416 2.31995 -0.0461053 
0.342 0.966503 0.0215274 0.091581 -0.238793 -0.974005 0.900947 0.913009 -0.916233 -2.82148 -0.000808241 -0.171859 0.327002 0.910484 1.06966 2.331 -0.0456729 
0.343 0.966598 0.021525 0.0917495 -0.238341 -0.97492 0.898126 0.913008 -0.914226 -2.8199 -0.00105793 -0.172197 0.326049 0.912514 1.06535 2.34209 -0.0451242 
0.344 0.966694 0.0215224 0.0919176 -0.237888 -0.975833 0.895307 0.913007 -0.912218 -2.8183 -0.00130659 -0.172541 0.325059 0.914569 1.06123 2.35322 -0.044458 
0.345 0.96679 0.0215196 0.0920851 -0.237434 -0.976744 0.892489 0.913005 -0.910211 -2.81669 -0.00155414 -0.172891 0.32403 0.91665 1.05732 2.36438 -0.0436731 
0.346 0.966885 0.0215166 0.0922521 -0.236979 -0.977654 0.889674 0.913003 -0.908203 -2.81507 -0.00180049 -0.173247 0.322965 0.918756 1.05361 2.37558 -0.0427683 
0.347 0.966981 0.0215134 0.0924187 -0.236523 -0.978561 0.886859 0.913002 -0.906194 -2.81343 -0.00204557 -0.173609 0.321862 0.920887 1.05011 2.38682 -0.0417424 
0.348 0.967077 0.02151 0.0925846 -0.236066 -0.979466 0.884047 0.912999 -0.904185 -2.81178 -0.00228928 -0.173977 0.320721 0.923044 1.04682 2.39809 -0.0405941 
0.349 0.967173 0.0215063 0.09275 -0.235607 -0.980369 0.881236 0.912997 -0.902175 -2.81011 -0.00253155 -0.174352 0.319543 0.925226 1.04373 2.4094 -0.0393223 
0.35 0.967269 0.0215024 0.0929149 -0.235148 -0.98127 0.878426 0.912994 -0.900163 -2.80843 -0.00277228 -0.174732 0.318328 0.927433 1.04086 2.42075 -0.0379257 
0.351 0.967365 0.0214983 0.0930791 -0.234687 -0.98217 0.875619 0.912991 -0.89815 -2.80674 -0.0030114 -0.175119 0.317075 0.929666 1.0382 2.43213 -0.0364031 
0.352 0.967462 0.021494 0.0932427 -0.234226 -0.983067 0.872813 0.912988 -0.896136 -2.80504 -0.0032488 -0.175513 0.315784 0.931924 1.03576 2.44356 -0.0347534 
0.353 0.967558 0.0214894 0.0934057 -0.233763 -0.983962 0.870009 0.912985 -0.894119 -2.80332 -0.00348441 -0.175913 0.314456 0.934208 1.03354 2.45502 -0.0329753 
0.354 0.967655 0.0214845 0.093568 -0.233298 -0.984855 0.867206 0.912981 -0.892101 -2.80159 -0.00371814 -0.17632 0.313091 0.936516 1.03153 2.46652 -0.0310676 
0.355 0.967751 0.0214794 0.0937296 -0.232833 -0.985746 0.864406 0.912977 -0.89008 -2.79985 -0.0039499 -0.176733 0.311688 0.93885 1.02975 2.47806 -0.029029 
0.356 0.967848 0.0214741 0.0938906 -0.232367 -0.986635 0.861607 0.912973 -0.888057 -2.79809 -0.00417959 -0.177154 0.310248 0.941209 1.0282 2.48965 -0.0268583 
0.357 0.967944 0.0214684 0.0940508 -0.231899 -0.987522 0.858809 0.912969 -0.886032 -2.79632 -0.00440714 -0.177581 0.30877 0.943593 1.02687 2.50127 -0.0245544 
0.358 0.968041 0.0214625 0.0942104 -0.23143 -0.988407 0.856014 0.912965 -0.884003 -2.79454 -0.00463244 -0.178016 0.307255 0.946003 1.02577 2.51293 -0.0221159 
0.359 0.968138 0.0214563 0.0943692 -0.23096 -0.98929 0.85322 0.91296 -0.881972 -2.79275 -0.00485541 -0.178457 0.305702 0.948437 1.0249 2.52463 -0.0195416 
0.36 0.968235 0.0214499 0.0945272 -0.230488 -0.990171 0.850429 0.912955 -0.879937 -2.79094 -0.00507596 -0.178906 0.304112 0.950897 1.02427 2.53638 -0.0168304 
0.361 0.968333 0.0214431 0.0946845 -0.230016 -0.99105 0.847638 0.91295 -0.877898 -2.78912 -0.00529399 -0.179363 0.302484 0.953382 1.02387 2.54816 -0.013981 
0.362 0.96843 0.021436 0.0948409 -0.229542 -0.991927 0.84485 0.912944 -0.875856 -2.78729 -0.0055094 -0.179826 0.300819 0.955892 1.02371 2.55999 -0.0109921 
0.363 0.968527 0.0214286 0.0949966 -0.229066 -0.992802 0.842064 0.912939 -0.87381 -2.78544 -0.00572212 -0.180298 0.299117 0.958427 1.02379 2.57186 -0.00786243 
0.364 0.968625 0.021421 0.0951514 -0.22859 -0.993675 0.839279 0.912933 -0.87176 -2.78359 -0.00593203 -0.180777 0.297377 0.960987 1.02411 2.58377 -0.00459086 
0.365 0.968723 0.021413 0.0953053 -0.228112 -0.994545 0.836497 0.912927 -0.869705 -2.78172 -0.00613906 -0.181264 0.2956 0.963572 1.02468 2.59573 -0.00117609 
0.366 0.96882 0.0214046 0.0954584 -0.227633 -0.995414 0.833716 0.912921 -0.867646 -2.77984 -0.0063431 -0.181759 0.293785 0.966182 1.0255 2.60773 0.00238313 
0.367 0.968918 0.021396 0.0956107 -0.227152 -0.996281 0.830937 0.912914 -0.865582 -2.77795 -0.00654405 -0.182262 0.291933 0.968817 1.02656 2.61977 0.00608805 
0.368 0.969016 0.021387 0.095762 -0.22667 -0.997145 0.82816 0.912908 -0.863512 -2.77604 -0.00674182 -0.182773 0.290043 0.971477 1.02788 2.63185 0.00993993 
0.369 0.969115 0.0213776 0.0959124 -0.226187 -0.998008 0.825385 0.912901 -0.861437 -2.77412 -0.00693632 -0.183292 0.288117 0.974162 1.02945 2.64398 0.01394 
0.37 0.969213 0.0213679 0.0960618 -0.225703 -0.998868 0.822612 0.912894 -0.859357 -2.77219 -0.00712744 -0.18382 0.286152 0.976871 1.03127 2.65615 0.0180896 
0.371 0.969312 0.0213579 0.0962103 -0.225217 -0.999726 0.819841 0.912886 -0.857271 -2.77025 -0.00731509 -0.184356 0.284151 0.979606 1.03336 2.66837 0.0223899 
0.372 0.96941 0.0213475 0.0963578 -0.224729 -1.00058 0.817071 0.912879 -0.855178 -2.7683 -0.00749916 -0.184901 0.282112 0.982365 1.03571 2.68063 0.0268422 
0.373 0.969509 0.0213367 0.0965044 -0.22424 -1.00144 0.814304 0.912871 -0.853079 -2.76634 -0.00767956 -0.185454 0.280036 0.985149 1.03831 2.69294 0.0314479 
0.374 0.969608 0.0213255 0.0966499 -0.22375 -1.00229 0.811539 0.912864 -0.850974 -2.76436 -0.00785619 -0.186016 0.277922 0.987958 1.04119 2.70529 0.0362081 
0.375 0.969707 0.021314 0.0967944 -0.223259 -1.00314 0.808775 0.912856 -0.848861 -2.76238 -0.00802895 -0.186588 0.275772 0.990792 1.04433 2.71769 0.0411241 
0.376 0.969807 0.0213021 0.0969378 -0.222766 -1.00399 0.806014 0.912848 -0.846742 -2.76038 -0.00819774 -0.187168 0.273583 0.99365 1.04774 2.73014 0.0461973 
0.377 0.969906 0.0212898 0.0970802 -0.222271 -1.00483 0.803255 0.912839 -0.844615 -2.75837 -0.00836245 -0.187758 0.271358 0.996533 1.05143 2.74263 0.0514288 
0.378 0.970006 0.021277 0.0972215 -0.221775 -1.00568 0.800497 0.912831 -0.84248 -2.75634 -0.00852298 -0.188357 0.269095 0.999441 1.05539 2.75517 0.0568201 
0.379 0.970106 0.0212639 0.0973618 -0.221277 -1.00652 0.797742 0.912822 -0.840337 -2.75431 -0.00867922 -0.188965 0.266795 1.00237 1.05962 2.76775 0.0623724 
0.38 0.970206 0.0212503 0.0975009 -0.220778 -1.00736 0.794989 0.912814 -0.838187 -2.75227 -0.00883109 -0.189583 0.264458 1.00533 1.06414 2.78038 0.068087 
0.381 0.970306 0.0212364 0.0976388 -0.220278 -1.00819 0.792237 0.912805 -0.836027 -2.75021 -0.00897846 -0.190211 0.262084 1.00831 1.06894 2.79306 0.0739653 
0.382 0.970406 0.021222 0.0977756 -0.219776 -1.00903 0.789488 0.912796 -0.833859 -2.74815 -0.00912124 -0.190849 0.259672 1.01132 1.07402 2.80579 0.0800084 
0.383 0.970507 0.0212071 0.0979113 -0.219272 -1.00986 0.786741 0.912786 -0.831682 -2.74607 -0.00925931 -0.191496 0.257223 1.01435 1.07939 2.81856 0.0862178 
0.384 0.970607 0.0211918 0.0980457 -0.218767 -1.01069 0.783996 0.912777 -0.829495 -2.74398 -0.00939258 -0.192154 0.254737 1.0174 1.08505 2.83138 0.0925948 
0.385 0.970708 0.0211761 0.098179 -0.218261 -1.01152 0.781253 0.912768 -0.827299 -2.74188 -0.00952093 -0.192822 0.252213 1.02048 1.09099 2.84425 0.0991407 
0.386 0.970809 0.0211599 0.098311 -0.217752 -1.01235 0.778512 0.912758 -0.825093 -2.73977 -0.00964426 -0.1935 0.249653 1.02359 1.09724 2.85717 0.105857 
0.387 0.970911 0.0211432 0.0984418 -0.217243 -1.01317 0.775774 0.912748 -0.822877 -2.73765 -0.00976246 -0.194189 0.247055 1.02672 1.10378 2.87014 0.112744 
0.388 0.971012 0.0211261 0.0985714 -0.216731 -1.01399 0.773037 0.912738 -0.82065 -2.73552 -0.00987542 -0.194889 0.24442 1.02987 1.11061 2.88315 0.119805 
0.389 0.971114 0.0211085 0.0986997 -0.216218 -1.01481 0.770303 0.912729 -0.818413 -2.73338 -0.00998303 -0.195599 0.241748 1.03305 1.11775 2.89622 0.12704 
0.39 0.971216 0.0210904 0.0988266 -0.215704 -1.01563 0.76757 0.912719 -0.816164 -2.73122 -0.0100852 -0.19632 0.239039 1.03625 1.12519 2.90933 0.13445 
0.391 0.971318 0.0210718 0.0989523 -0.215187 -1.01644 0.76484 0.912708 -0.813904 -2.72906 -0.0101818 -0.197053 0.236293 1.03947 1.13294 2.92249 0.142038 
0.392 0.97142 0.0210527 0.0990766 -0.21467 -1.01726 0.762112 0.912698 -0.811633 -2.72689 -0.0102727 -0.197796 0.23351 1.04272 1.14099 2.93571 0.149803 
0.393 0.971523 0.0210331 0.0991996 -0.21415 -1.01807 0.759386 0.912688 -0.809349 -2.7247 -0.0103578 -0.198551 0.23069 1.046 1.14936 2.94897 0.157749 
0.394 0.971626 0.0210129 0.0993213 -0.213629 -1.01888 0.756663 0.912677 -0.807053 -2.72251 -0.0104369 -0.199318 0.227832 1.0493 1.15804 2.96228 0.165875 
0.395 0.971729 0.0209923 0.0994415 -0.213106 -1.01968 0.753941 0.912667 -0.804745 -2.7203 -0.0105101 -0.200096 0.224938 1.05262 1.16703 2.97564 0.174184 
0.396 0.971832 0.0209711 0.0995604 -0.212581 -1.02048 0.751222 0.912656 -0.802423 -2.71809 -0.0105771 -0.200886 0.222006 1.05597 1.17635 2.98906 0.182677 
0.397 0.971935 0.0209494 0.0996778 -0.212055 -1.02129 0.748505 0.912646 -0.800089 -2.71586 -0.0106379 -0.201688 0.219038 1.05934 1.18598 3.00252 0.191355 
0.398 0.972039 0.0209271 0.0997939 -0.211527 -1.02209 0.74579 0.912635 -0.797741 -2.71363 -0.0106923 -0.202502 0.216033 1.06273 1.19594 3.01603 0.20022 
0.399 0.972143 0.0209043 0.0999084 -0.210997 -1.02288 0.743078 0.912624 -0.795379 -2.71138 -0.0107402 -0.203328 0.21299 1.06615 1.20622 3.0296 0.209273 
0.4 0.972247 0.0208809 0.100022 -0.210466 -1.02368 0.740368 0.912614 -0.793002 -2.70913 -0.0107815 -0.204166 0.209911 1.0696 1.21683 3.04322 0.218515 
0.401 0.972351 0.020857 0.100133 -0.209932 -1.02447 0.73766 0.912603 -0.790615 -2.70688 -0.0108188 -0.205009 0.206817 1.07304 1.23378 3.03237 0.223627 
0.402 0.972456 0.0208324 0.100243 -0.209398 -1.02526 0.734954 0.912592 -0.788217 -2.70464 -0.0108547 -0.205847 0.203731 1.07647 1.2508 3.02154 0.228751 
0.403 0.97256 0.0208073 0.100352 -0.208861 -1.02604 0.73225 0.912581 -0.785811 -2.70241 -0.0108893 -0.20668 0.200654 1.07989 1.26788 3.01073 0.233888 
0.404 0.972665 0.0207817 0.100459 -0.208322 -1.02683 0.729549 0.91257 -0.783395 -2.70021 -0.0109225 -0.207508 0.197584 1.08329 1.28502 2.99993 0.239038 
0.405 0.972771 0.0207555 0.100565 -0.207782 -1.02761 0.72685 0.912559 -0.78097 -2.69801 -0.0109544 -0.208332 0.194522 1.08667 1.30222 2.98914 0.244198 
0.406 0.972876 0.0207287 0.100669 -0.20724 -1.02839 0.724153 0.912548 -0.778535 -2.69583 -0.0109849 -0.209151 0.191469 1.09004 1.31947 2.97837 0.24937 
0.407 0.972981 0.0207014 0.100772 -0.206697 -1.02917 0.721458 0.912537 -0.776091 -2.69367 -0.011014 -0.209966 0.188423 1.09339 1.33678 2.96761 0.254551 
0.408 0.973087 0.0206736 0.100873 -0.206151 -1.02994 0.718766 0.912526 -0.773637 -2.69151 -0.0110419 -0.210776 0.185386 1.09673 1.35413 2.95686 0.259743 
0.409 0.973193 0.0206452 0.100973 -0.205604 -1.03072 0.716075 0.912515 -0.771173 -2.68938 -0.0110684 -0.211582 0.182356 1.10005 1.37153 2.94612 0.264942 
0.41 0.973299 0.0206162 0.101071 -0.205056 -1.03149 0.713387 0.912504 -0.7687 -2.68725 -0.0110935 -0.212383 0.179335 1.10336 1.38897 2.93539 0.270151 
0.411 0.973406 0.0205868 0.101168 -0.204505 -1.03225 0.710701 0.912493 -0.766216 -2.68515 -0.0111173 -0.21318 0.176322 1.10665 1.40646 2.92467 0.275366 
0.412 0.973512 0.0205567 0.101264 -0.203953 -1.03302 0.708017 0.912482 -0.763722 -2.68305 -0.0111398 -0.213972 0.173316 1.10992 1.42398 2.91396 0.280589 
0.413 0.973619 0.0205262 0.101358 -0.2034 -1.03378 0.705335 0.912471 -0.761219 -2.68097 -0.011161 -0.21476 0.170319 1.11318 1.44153 2.90326 0.285818 
0.414 0.973726 0.0204951 0.101451 -0.202844 -1.03454 0.702655 0.91246 -0.758705 -2.67891 -0.0111809 -0.215543 0.16733 1.11642 1.45912 2.89256 0.291053 
0.415 0.973833 0.0204635 0.101542 -0.202287 -1.0353 0.699977 0.912448 -0.756181 -2.67686 -0.0111994 -0.216322 0.164349 1.11965 1.47674 2.88188 0.296292 
0.416 0.97394 0.0204314 0.101631 -0.201729 -1.03605 0.697301 0.912437 -0.753647 -2.67482 -0.0112166 -0.217097 0.161376 1.12286 1.49439 2.87119 0.301537 
0.417 0.974047 0.0203988 0.10172 -0.201168 -1.0368 0.694627 0.912426 -0.751103 -2.6728 -0.0112325 -0.217867 0.158411 1.12605 1.51206 2.86052 0.306784 
0.418 0.974155 0.0203656 0.101807 -0.200606 -1.03755 0.691955 0.912415 -0.748548 -2.67079 -0.0112471 -0.218633 0.155455 1.12923 1.52975 2.84984 0.312035 
0.419 0.974263 0.0203319 0.101892 -0.200043 -1.0383 0.689286 0.912404 -0.745983 -2.66879 -0.0112604 -0.219395 0.152506 1.13239 1.54747 2.83918 0.317289 
0.42 0.97437 0.0202977 0.101976 -0.199478 -1.03905 0.686618 0.912392 -0.743407 -2.66681 -0.0112724 -0.220152 0.149566 1.13554 1.5652 2.82851 0.322544 
0.421 0.974478 0.0202631 0.102059 -0.198911 -1.03979 0.683952 0.912381 -0.740821 -2.66485 -0.0112831 -0.220905 0.146633 1.13867 1.58294 2.81785 0.327801 
0.422 0.974586 0.0202279 0.10214 -0.198342 -1.04053 0.681288 0.91237 -0.738225 -2.6629 -0.0112925 -0.221654 0.143709 1.14179 1.6007 2.80719 0.333058 
0.423 0.974695 0.0201922 0.10222 -0.197773 -1.04127 0.678626 0.912358 -0.735618 -2.66096 -0.0113006 -0.222398 0.140793 1.14489 1.61846 2.79654 0.338315 
0.424 0.974803 0.020156 0.102298 -0.197201 -1.042 0.675966 0.912347 -0.733 -2.65903 -0.0113074 -0.223138 0.137885 1.14797 1.63624 2.78588 0.343572 
0.425 0.974911 0.0201193 0.102375 -0.196628 -1.04273 0.673308 0.912336 -0.730371 -2.65712 -0.0113129 -0.223874 0.134986 1.15104 1.65401 2.77522 0.348827 
0.426 0.97502 0.0200821 0.10245 -0.196053 -1.04346 0.670652 0.912324 -0.727732 -2.65523 -0.0113172 -0.224606 0.132094 1.15409 1.67179 2.76457 0.35408 
0.427 0.975129 0.0200444 0.102524 -0.195477 -1.04419 0.667998 0.912313 -0.725083 -2.65334 -0.0113201 -0.225333 0.129211 1.15713 1.68957 2.75391 0.35933 
0.428 0.975237 0.0200062 0.102597 -0.194899 -1.04491 0.665345 0.912302 -0.722422 -2.65147 -0.0113218 -0.226057 0.126336 1.16015 1.70735 2.74325 0.364577 
0.429 0.975346 0.0199676 0.102669 -0.19432 -1.04563 0.662695 0.91229 -0.719751 -2.64962 -0.0113222 -0.226775 0.123469 1.16315 1.72512 2.7326 0.36982 
0.43 0.975455 0.0199285 0.102738 -0.193739 -1.04635 0.660046 0.912279 -0.717069 -2.64778 -0.0113213 -0.22749 0.12061 1.16614 1.74288 2.72193 0.375059 
0.431 0.975564 0.0198889 0.102807 -0.193157 -1.04707 0.657399 0.912268 -0.714376 -2.64595 -0.0113191 -0.228201 0.117759 1.16911 1.76064 2.71127 0.380293 
0.432 0.975673 0.0198488 0.102874 -0.192573 -1.04778 0.654754 0.912257 -0.711672 -2.64414 -0.0113157 -0.228907 0.114917 1.17207 1.77838 2.7006 0.38552 
0.433 0.975783 0.0198082 0.10294 -0.191987 -1.04849 0.652111 0.912245 -0.708957 -2.64234 -0.011311 -0.229609 0.112083 1.17501 1.7961 2.68993 0.390741 
0.434 0.975892 0.0197672 0.103004 -0.1914 -1.0492 0.649469 0.912234 -0.706232 -2.64055 -0.011305 -0.230307 0.109257 1.17794 1.81381 2.67925 0.395955 
0.435 0.976001 0.0197257 0.103067 -0.190812 -1.0499 0.64683 0.912223 -0.703496 -2.63878 -0.0112978 -0.231 0.106439 1.18085 1.8315 2.66857 0.401161 
0.436 0.976111 0.0196838 0.103129 -0.190222 -1.0506 0.644192 0.912211 -0.700749 -2.63702 -0.0112893 -0.23169 0.10363 1.18374 1.84917 2.65788 0.406359 
0.437 0.976221 0.0196414 0.103189 -0.18963 -1.0513 0.641556 0.9122 -0.697991 -2.63527 -0.0112796 -0.232375 0.100829 1.18662 1.86682 2.64719 0.411548 
0.438 0.97633 0.0195985 0.103248 -0.189037 -1.052 0.638921 0.912189 -0.695222 -2.63354 -0.0112686 -0.233056 0.0980358 1.18948 1.88444 2.63648 0.416726 
0.439 0.97644 0.0195552 0.103306 -0.188443 -1.05269 0.636289 0.912177 -0.692442 -2.63182 -0.0112564 -0.233732 0.095251 1.19233 1.90203 2.62578 0.421895 
0.44 0.97655 0.0195114 0.103362 -0.187847 -1.05338 0.633658 0.912166 -0.689651 -2.63011 -0.0112429 -0.234405 0.0924746 1.19516 1.91959 2.61506 0.427052 
0.441 0.976659 0.0194672 0.103417 -0.18725 -1.05407 0.631028 0.912155 -0.68685 -2.62842 -0.0112281 -0.235073 0.0897064 1.19797 1.93711 2.60434 0.432197 
0.442 0.976769 0.0194225 0.10347 -0.186651 -1.05476 0.628401 0.912144 -0.684037 -2.62674 -0.0112121 -0.235737 0.0869465 1.20077 1.95461 2.5936 0.43733 
0.443 0.976879 0.0193774 0.103522 -0.186051 -1.05544 0.625775 0.912133 -0.681214 -2.62508 -0.0111949 -0.236396 0.0841949 1.20355 1.97206 2.58286 0.44245 
0.444 0.976989 0.0193318 0.103573 -0.185449 -1.05612 0.623151 0.912121 -0.678379 -2.62342 -0.0111765 -0.237052 0.0814516 1.20632 1.98948 2.57211 0.447556 
0.445 0.977099 0.0192858 0.103623 -0.184846 -1.0568 0.620528 0.91211 -0.675534 -2.62178 -0.0111568 -0.237703 0.0787165 1.20907 2.00685 2.56135 0.452648 
0.446 0.977209 0.0192394 0.103671 -0.184242 -1.05747 0.617907 0.912099 -0.672678 -2.62016 -0.0111359 -0.23835 0.0759898 1.21181 2.02418 2.55057 0.457725 
0.447 0.977319 0.0191925 0.103717 -0.183636 -1.05814 0.615288 0.912088 -0.669812 -2.61854 -0.0111137 -0.238992 0.0732713 1.21453 2.04147 2.53979 0.462785 
0.448 0.977429 0.0191453 0.103763 -0.183029 -1.05881 0.61267 0.912077 -0.666934 -2.61694 -0.0110903 -0.239631 0.0705612 1.21723 2.0587 2.529 0.46783 
0.449 0.977539 0.0190975 0.103807 -0.18242 -1.05948 0.610054 0.912066 -0.664046 -2.61536 -0.0110657 -0.240265 0.0678593 1.21992 2.07589 2.51819 0.472857 
0.45 0.977649 0.0190494 0.10385 -0.18181 -1.06014 0.607439 0.912055 -0.661147 -2.61378 -0.0110399 -0.240894 0.0651658 1.22259 2.09303 2.50737 0.477866 
0.451 0.977759 0.0190009 0.103891 -0.181198 -1.0608 0.604826 0.912044 -0.658237 -2.61222 -0.0110129 -0.24152 0.0624807 1.22525 2.11011 2.49654 0.482857 
0.452 0.977869 0.0189519 0.103931 -0.180586 -1.06146 0.602215 0.912033 -0.655316 -2.61067 -0.0109847 -0.242141 0.0598038 1.22789 2.12713 2.48569 0.487829 
0.453 0.977979 0.0189025 0.10397 -0.179971 -1.06211 0.599605 0.912022 -0.652385 -2.60914 -0.0109552 -0.242758 0.0571353 1.23051 2.1441 2.47483 0.492781 
0.454 0.978089 0.0188527 0.104008 -0.179356 -1.06276 0.596996 0.912011 -0.649443 -2.60761 -0.0109246 -0.24337 0.0544752 1.23312 2.16101 2.46396 0.497712 
0.455 0.978199 0.0188025 0.104044 -0.178739 -1.06341 0.59439 0.912 -0.64649 -2.6061 -0.0108927 -0.243978 0.0518234 1.23571 2.17785 2.45307 0.502622 
0.456 0.978309 0.0187519 0.104079 -0.178121 -1.06405 0.591784 0.911989 -0.643527 -2.6046 -0.0108597 -0.244581 0.0491799 1.23829 2.19463 2.44217 0.50751 
0.457 0.978419 0.0187008 0.104112 -0.177501 -1.0647 0.58918 0.911978 -0.640553 -2.60312 -0.0108255 -0.24518 0.0465448 1.24085 2.21135 2.43125 0.512376 
0.458 0.978529 0.0186494 0.104145 -0.17688 -1.06533 0.586578 0.911967 -0.637569 -2.60164 -0.0107901 -0.245775 0.0439181 1.2434 2.228 2.42032 0.517218 
0.459 0.978639 0.0185976 0.104176 -0.176258 -1.06597 0.583977 0.911957 -0.634575 -2.60018 -0.0107535 -0.246365 0.0412997 1.24593 2.24457 2.40937 0.522036 
0.46 0.978749 0.0185454 0.104205 -0.175634 -1.0666 0.581378 0.911946 -0.631569 -2.59874 -0.0107157 -0.246951 0.0386897 1.24844 2.26108 2.39841 0.526829 
0.461 0.978859 0.0184928 0.104234 -0.17501 -1.06723 0.57878 0.911935 -0.628554 -2.5973 -0.0106768 -0.247533 0.0360881 1.25094 2.27751 2.38742 0.531597 
0.462 0.978969 0.0184398 0.104261 -0.174383 -1.06786 0.576183 0.911924 -0.625528 -2.59588 -0.0106367 -0.248109 0.0334949 1.25342 2.29387 2.37643 0.536339 
0.463 0.979079 0.0183864 0.104287 -0.173756 -1.06848 0.573588 0.911914 -0.622492 -2.59447 -0.0105954 -0.248682 0.0309101 1.25589 2.31015 2.36541 0.541054 
0.464 0.979188 0.0183327 0.104311 -0.173127 -1.06911 0.570994 0.911903 -0.619445 -2.59307 -0.010553 -0.24925 0.0283336 1.25834 2.32635 2.35438 0.545742 
0.465 0.979298 0.0182785 0.104334 -0.172497 -1.06972 0.568402 0.911893 -0.616389 -2.59168 -0.0105094 -0.249813 0.0257656 1.26077 2.34247 2.34333 0.550401 
0.466 0.979408 0.018224 0.104356 -0.171866 -1.07034 0.565811 0.911882 -0.613322 -2.59031 -0.0104647 -0.250371 0.0232059 1.26319 2.3585 2.33226 0.555031 
0.467 0.979517 0.0181691 0.104377 -0.171234 -1.07095 0.563221 0.911872 -0.610245 -2.58895 -0.0104188 -0.250925 0.0206547 1.2656 2.37445 2.32117 0.559632 
0.468 0.979627 0.0181139 0.104397 -0.1706 -1.07156 0.560633 0.911861 -0.607158 -2.5876 -0.0103719 -0.251475 0.0181119 1.26799 2.39032 2.31007 0.564202 
0.469 0.979736 0.0180582 0.104415 -0.169965 -1.07216 0.558046 0.911851 -0.604061 -2.58626 -0.0103237 -0.25202 0.0155774 1.27036 2.4061 2.29894 0.568741 
0.47 0.979846 0.0180022 0.104432 -0.169329 -1.07277 0.55546 0.911841 -0.600955 -2.58493 -0.0102745 -0.25256 0.0130514 1.27272 2.42179 2.2878 0.573249 
0.471 0.979955 0.0179459 0.104447 -0.168691 -1.07337 0.552876 0.911831 -0.597838 -2.58362 -0.0102242 -0.253095 0.0105339 1.27506 2.43738 2.27664 0.577724 
0.472 0.980064 0.0178892 0.104462 -0.168053 -1.07396 0.550293 0.91182 -0.594712 -2.58231 -0.0101728 -0.253626 0.00802472 1.27738 2.45288 2.26545 0.582165 
0.473 0.980173 0.0178321 0.104475 -0.167413 -1.07456 0.547711 0.91181 -0.591576 -2.58102 -0.0101202 -0.254152 0.00552399 1.27969 2.46829 2.25425 0.586573 
0.474 0.980282 0.0177747 0.104487 -0.166772 -1.07515 0.545131 0.9118 -0.58843 -2.57975 -0.0100666 -0.254673 0.00303169 1.28198 2.4836 2.24303 0.590946 
0.475 0.980391 0.0177169 0.104498 -0.166129 -1.07573 0.542552 0.91179 -0.585275 -2.57848 -0.0100119 -0.25519 0.000547823 1.28426 2.49882 2.23178 0.595284 
0.476 0.9805 0.0176588 0.104507 -0.165486 -1.07632 0.539974 0.91178 -0.58211 -2.57722 -0.00995612 -0.255701 -0.00192761 1.28652 2.51393 2.22052 0.599585 
0.477 0.980609 0.0176003 0.104515 -0.164841 -1.0769 0.537397 0.91177 -0.578936 -2.57598 -0.00989928 -0.256208 -0.0043946 1.28877 2.52894 2.20924 0.60385 
0.478 0.980718 0.0175415 0.104523 -0.164195 -1.07747 0.534822 0.91176 -0.575752 -2.57475 -0.00984139 -0.25671 -0.00685315 1.291 2.54385 2.19793 0.608077 
0.479 0.980826 0.0174824 0.104528 -0.163548 -1.07805 0.532248 0.91175 -0.572559 -2.57353 -0.00978245 -0.257207 -0.00930326 1.29322 2.55866 2.1866 0.612266 
0.48 0.980935 0.0174229 0.104533 -0.1629 -1.07862 0.529675 0.911741 -0.569357 -2.57232 -0.00972247 -0.2577 -0.0117449 1.29542 2.57335 2.17525 0.616416 
0.481 0.981043 0.0173631 0.104536 -0.162251 -1.07919 0.527103 0.911731 -0.566146 -2.57112 -0.00966147 -0.258187 -0.0141781 1.2976 2.58794 2.16388 0.620526 
0.482 0.981151 0.017303 0.104538 -0.161601 -1.07975 0.524533 0.911721 -0.562926 -2.56993 -0.00959945 -0.258669 -0.0166029 1.29977 2.60242 2.15249 0.624595 
0.483 0.981259 0.0172425 0.104539 -0.160949 -1.08031 0.521963 0.911712 -0.559697 -2.56876 -0.00953642 -0.259146 -0.0190192 1.30192 2.61679 2.14108 0.628623 
0.484 0.981367 0.0171817 0.104539 -0.160296 -1.08087 0.519395 0.911702 -0.556459 -2.5676 -0.0094724 -0.259618 -0.0214271 1.30406 2.63105 2.12964 0.632609 
0.485 0.981475 0.0171206 0.104537 -0.159642 -1.08143 0.516828 0.911693 -0.553212 -2.56644 -0.00940739 -0.260086 -0.0238265 1.30618 2.64519 2.11819 0.636553 
0.486 0.981583 0.0170592 0.104535 -0.158987 -1.08198 0.514262 0.911684 -0.549957 -2.5653 -0.00934141 -0.260548 -0.0262175 1.30829 2.65922 2.10671 0.640453 
0.487 0.98169 0.0169975 0.104531 -0.158331 -1.08253 0.511698 0.911674 -0.546693 -2.56417 -0.00927447 -0.261005 -0.0286 1.31038 2.67313 2.0952 0.644309 
0.488 0.981798 0.0169354 0.104526 -0.157674 -1.08307 0.509134 0.911665 -0.543421 -2.56305 -0.00920657 -0.261457 -0.030974 1.31245 2.68692 2.08368 0.64812 
0.489 0.981905 0.0168731 0.104519 -0.157016 -1.08361 0.506572 0.911656 -0.54014 -2.56194 -0.00913774 -0.261903 -0.0333396 1.31451 2.7006 2.07213 0.651885 
0.49 0.982012 0.0168104 0.104512 -0.156357 -1.08415 0.50401 0.911647 -0.536851 -2.56085 -0.00906798 -0.262345 -0.0356967 1.31655 2.71415 2.06056 0.655604 
0.491 0.982119 0.0167474 0.104503 -0.155696 -1.08469 0.50145 0.911638 -0.533553 -2.55976 -0.00899731 -0.262781 -0.0380454 1.31858 2.72758 2.04897 0.659276 
0.492 0.982226 0.0166842 0.104493 -0.155035 -1.08522 0.498891 0.911629 -0.530248 -2.55869 -0.00892575 -0.263212 -0.0403856 1.32059 2.74088 2.03735 0.6629 
0.493 0.982332 0.0166206 0.104482 -0.154372 -1.08575 0.496332 0.91162 -0.526934 -2.55762 -0.00885329 -0.263637 -0.0427174 1.32259 2.75406 2.02571 0.666476 
0.494 0.982439 0.0165568 0.10447 -0.153709 -1.08627 0.493775 0.911611 -0.523613 -2.55657 -0.00877997 -0.264058 -0.0450407 1.32457 2.76712 2.01405 0.670002 
0.495 0.982545 0.0164927 0.104457 -0.153044 -1.08679 0.491219 0.911602 -0.520284 -2.55552 -0.00870579 -0.264472 -0.0473556 1.32654 2.78004 2.00237 0.673478 
0.496 0.982651 0.0164283 0.104442 -0.152379 -1.08731 0.488664 0.911594 -0.516947 -2.55449 -0.00863076 -0.264882 -0.049662 1.32849 2.79284 1.99066 0.676903 
0.497 0.982757 0.0163636 0.104426 -0.151712 -1.08783 0.48611 0.911585 -0.513602 -2.55347 -0.00855492 -0.265286 -0.0519599 1.33042 2.8055 1.97893 0.680277 
0.498 0.982862 0.0162986 0.10441 -0.151044 -1.08834 0.483557 0.911576 -0.51025 -2.55246 -0.00847826 -0.265685 -0.0542494 1.33234 2.81804 1.96717 0.683598 
0.499 0.982968 0.0162334 0.104392 -0.150376 -1.08885 0.481005 0.911568 -0.506891 -2.55146 -0.0084008 -0.266078 -0.0565305 1.33424 2.83044 1.9554 0.686866 
0.5 0.983073 0.0161678 0.104372 -0.149706 -1.08935 0.478454 0.91156 -0.503524 -2.55047 -0.00832257 -0.266465 -0.0588031 1.33613 2.8427 1.9436 0.690081 
0.501 0.983178 0.0161021 0.104352 -0.149035 -1.08986 0.475904 0.911551 -0.50015 -2.54949 -0.00824358 -0.266847 -0.0610672 1.338 2.85483 1.93177 0.693241 
0.502 0.983283 0.016036 0.104331 -0.148364 -1.09035 0.473355 0.911543 -0.496769 -2.54852 -0.00816384 -0.267224 -0.063323 1.33986 2.86683 1.91992 0.696346 
0.503 0.983388 0.0159697 0.104308 -0.147691 -1.09085 0.470807 0.911535 -0.493381 -2.54756 -0.00808338 -0.267595 -0.0655702 1.3417 2.87868 1.90805 0.699395 
0.504 0.983493 0.0159031 0.104284 -0.147017 -1.09134 0.46826 0.911527 -0.489987 -2.54661 -0.00800221 -0.26796 -0.0678091 1.34353 2.8904 1.89616 0.702387 
0.505 0.983597 0.0158363 0.104259 -0.146343 -1.09183 0.465714 0.911519 -0.486586 -2.54567 -0.00792036 -0.268319 -0.0700395 1.34534 2.90198 1.88424 0.705321 
0.506 0.983701 0.0157692 0.104233 -0.145667 -1.09231 0.463169 0.911511 -0.483178 -2.54475 -0.00783783 -0.268673 -0.0722615 1.34713 2.91341 1.8723 0.708198 
0.507 0.983805 0.0157019 0.104206 -0.144991 -1.0928 0.460625 0.911503 -0.479763 -2.54383 -0.00775465 -0.269021 -0.074475 1.34891 2.9247 1.86034 0.711015 
0.508 0.983909 0.0156343 0.104178 -0.144313 -1.09327 0.458081 0.911496 -0.476342 -2.54292 -0.00767085 -0.269363 -0.0766801 1.35068 2.93585 1.84835 0.713773 
0.509 0.984012 0.0155665 0.104148 -0.143635 -1.09375 0.455539 0.911488 -0.472916 -2.54202 -0.00758643 -0.269699 -0.0788769 1.35242 2.94685 1.83634 0.716471 
0.51 0.984115 0.0154985 0.104118 -0.142956 -1.09422 0.452997 0.91148 -0.469482 -2.54113 -0.00750143 -0.270029 -0.0810651 1.35416 2.95771 1.82431 0.719107 
0.511 0.984218 0.0154302 0.104086 -0.142275 -1.09469 0.450457 0.911473 -0.466043 -2.54026 -0.00741586 -0.270354 -0.083245 1.35588 2.96842 1.81226 0.721682 
0.512 0.984321 0.0153617 0.104053 -0.141594 -1.09515 0.447917 0.911466 -0.462599 -2.53939 -0.00732974 -0.270672 -0.0854165 1.35758 2.97898 1.80018 0.724194 
0.513 0.984424 0.0152929 0.10402 -0.140912 -1.09561 0.445378 0.911458 -0.459148 -2.53853 -0.00724311 -0.270985 -0.0875796 1.35926 2.98939 1.78808 0.726643 
0.514 0.984526 0.015224 0.103985 -0.140229 -1.09607 0.44284 0.911451 -0.455692 -2.53768 -0.00715597 -0.271291 -0.0897343 1.36094 2.99966 1.77595 0.729028 
0.515 0.984628 0.0151548 0.103949 -0.139546 -1.09652 0.440302 0.911444 -0.45223 -2.53684 -0.00706836 -0.271591 -0.0918806 1.36259 3.00977 1.76381 0.731348 
0.516 0.98473 0.0150854 0.103911 -0.138861 -1.09697 0.437766 0.911437 -0.448763 -2.53601 -0.00698029 -0.271886 -0.0940185 1.36423 3.01972 1.75164 0.733602 
0.517 0.984831 0.0150157 0.103873 -0.138175 -1.09742 0.43523 0.91143 -0.445291 -2.5352 -0.0068918 -0.272174 -0.096148 1.36586 3.02953 1.73945 0.735791 
0.518 0.984932 0.0149459 0.103834 -0.137489 -1.09786 0.432696 0.911423 -0.441813 -2.53439 -0.00680291 -0.272456 -0.0982692 1.36747 3.03918 1.72723 0.737912 
0.519 0.985033 0.0148759 0.103793 -0.136802 -1.0983 0.430162 0.911416 -0.438331 -2.53359 -0.00671364 -0.272732 -0.100382 1.36906 3.04868 1.715 0.739966 
0.52 0.985134 0.0148056 0.103752 -0.136114 -1.09874 0.427628 0.91141 -0.434844 -2.5328 -0.00662401 -0.273001 -0.102486 1.37064 3.05802 1.70274 0.741952 
0.521 0.985235 0.0147352 0.103709 -0.135425 -1.09917 0.425096 0.911403 -0.431352 -2.53201 -0.00653407 -0.273264 -0.104583 1.3722 3.0672 1.69046 0.743868 
0.522 0.985335 0.0146645 0.103666 -0.134735 -1.0996 0.422564 0.911397 -0.427856 -2.53124 -0.00644382 -0.273521 -0.10667 1.37375 3.07623 1.67816 0.745715 
0.523 0.985435 0.0145937 0.103621 -0.134044 -1.10003 0.420034 0.91139 -0.424355 -2.53048 -0.00635331 -0.273772 -0.10875 1.37529 3.08509 1.66584 0.747492 
0.524 0.985535 0.0145227 0.103575 -0.133353 -1.10045 0.417503 0.911384 -0.420851 -2.52973 -0.00626255 -0.274016 -0.110821 1.3768 3.0938 1.6535 0.749197 
0.525 0.985634 0.0144515 0.103528 -0.132661 -1.10087 0.414974 0.911378 -0.417341 -2.52899 -0.00617158 -0.274254 -0.112884 1.37831 3.10235 1.64113 0.750831 
0.526 0.985733 0.0143801 0.10348 -0.131967 -1.10129 0.412445 0.911372 -0.413828 -2.52825 -0.00608043 -0.274485 -0.114938 1.37979 3.11073 1.62875 0.752392 
0.527 0.985832 0.0143085 0.103431 -0.131274 -1.1017 0.409918 0.911366 -0.410312 -2.52753 -0.00598912 -0.27471 -0.116984 1.38127 3.11895 1.61634 0.75388 
0.528 0.98593 0.0142368 0.103381 -0.130579 -1.10211 0.40739 0.91136 -0.406791 -2.52681 -0.00589768 -0.274928 -0.119022 1.38272 3.12701 1.60392 0.755294 
0.529 0.986029 0.0141649 0.10333 -0.129884 -1.10251 0.404864 0.911354 -0.403267 -2.5261 -0.00580615 -0.27514 -0.121052 1.38416 3.13491 1.59147 0.756634 
0.53 0.986127 0.0140928 0.103278 -0.129187 -1.10291 0.402338 0.911348 -0.399739 -2.52541 -0.00571456 -0.275345 -0.123073 1.38559 3.14264 1.579 0.757898 
0.531 0.986224 0.0140205 0.103225 -0.128491 -1.10331 0.399813 0.911342 -0.396208 -2.52472 -0.00562294 -0.275544 -0.125086 1.387 3.15021 1.56652 0.759087 
0.532 0.986322 0.0139481 0.103171 -0.127793 -1.10371 0.397289 0.911337 -0.392674 -2.52404 -0.00553132 -0.275735 -0.127091 1.3884 3.15761 1.55401 0.760199 
0.533 0.986419 0.0138756 0.103115 -0.127095 -1.1041 0.394765 0.911331 -0.389137 -2.52337 -0.00543973 -0.275921 -0.129088 1.38978 3.16484 1.54148 0.761233 
0.534 0.986515 0.0138029 0.103059 -0.126395 -1.10449 0.392242 0.911326 -0.385598 -2.52271 -0.00534821 -0.276099 -0.131076 1.39114 3.17191 1.52894 0.76219 
0.535 0.986612 0.01373 0.103002 -0.125695 -1.10487 0.38972 0.911321 -0.382055 -2.52206 -0.00525679 -0.27627 -0.133056 1.39249 3.17881 1.51637 0.763068 
0.536 0.986708 0.013657 0.102943 -0.124995 -1.10525 0.387198 0.911315 -0.37851 -2.52141 -0.00516551 -0.276435 -0.135028 1.39382 3.18554 1.50379 0.763867 
0.537 0.986804 0.0135839 0.102884 -0.124294 -1.10563 0.384677 0.91131 -0.374963 -2.52078 -0.0050744 -0.276593 -0.136992 1.39514 3.1921 1.49119 0.764587 
0.538 0.986899 0.0135106 0.102824 -0.123592 -1.106 0.382156 0.911305 -0.371413 -2.52015 -0.00498349 -0.276744 -0.138948 1.39645 3.19849 1.47857 0.765225 
0.539 0.986994 0.0134372 0.102762 -0.122889 -1.10637 0.379637 0.9113 -0.367861 -2.51953 -0.00489283 -0.276888 -0.140895 1.39774 3.20471 1.46593 0.765783 
0.54 0.987089 0.0133636 0.1027 -0.122185 -1.10674 0.377117 0.911296 -0.364308 -2.51893 -0.00480245 -0.277025 -0.142834 1.39901 3.21076 1.45327 0.766259 
0.541 0.987184 0.0132899 0.102636 -0.121481 -1.1071 0.374599 0.911291 -0.360752 -2.51833 -0.00471238 -0.277155 -0.144765 1.40027 3.21663 1.4406 0.766652 
0.542 0.987278 0.0132161 0.102572 -0.120777 -1.10746 0.372081 0.911286 -0.357195 -2.51773 -0.00462267 -0.277278 -0.146688 1.40151 3.22234 1.42791 0.766963 
0.543 0.987372 0.0131422 0.102507 -0.120071 -1.10781 0.369563 0.911282 -0.353637 -2.51715 -0.00453336 -0.277394 -0.148603 1.40274 3.22787 1.4152 0.767189 
0.544 0.987465 0.0130682 0.10244 -0.119365 -1.10816 0.367046 0.911277 -0.350077 -2.51658 -0.00444447 -0.277502 -0.15051 1.40395 3.23322 1.40248 0.767332 
0.545 0.987558 0.0129941 0.102373 -0.118658 -1.10851 0.36453 0.911273 -0.346516 -2.51601 -0.00435606 -0.277604 -0.152409 1.40515 3.2384 1.38974 0.76739 
0.546 0.987651 0.0129198 0.102304 -0.117951 -1.10886 0.362014 0.911268 -0.342954 -2.51545 -0.00426816 -0.277699 -0.1543 1.40633 3.24341 1.37698 0.767362 
0.547 0.987743 0.0128455 0.102235 -0.117243 -1.1092 0.359499 0.911264 -0.339391 -2.51491 -0.00418081 -0.277786 -0.156182 1.4075 3.24824 1.36421 0.767248 
0.548 0.987836 0.012771 0.102165 -0.116534 -1.10954 0.356984 0.91126 -0.335828 -2.51437 -0.00409405 -0.277866 -0.158057 1.40865 3.2529 1.35142 0.767048 
0.549 0.987927 0.0126965 0.102093 -0.115825 -1.10987 0.35447 0.911256 -0.332263 -2.51383 -0.00400793 -0.277939 -0.159923 1.40979 3.25738 1.33862 0.766761 
0.55 0.988019 0.0126218 0.102021 -0.115115 -1.1102 0.351957 0.911252 -0.328699 -2.51331 -0.00392249 -0.278004 -0.161782 1.41091 3.26168 1.3258 0.766385 
0.551 0.98811 0.0125471 0.101948 -0.114405 -1.11053 0.349444 0.911248 -0.325134 -2.51279 -0.00383776 -0.278062 -0.163632 1.41202 3.26581 1.31297 0.765922 
0.552 0.9882 0.0124723 0.101873 -0.113694 -1.11085 0.346931 0.911244 -0.32157 -2.51229 -0.0037538 -0.278113 -0.165475 1.41311 3.26976 1.30013 0.765369 
0.553 0.988291 0.0123974 0.101798 -0.112982 -1.11117 0.344419 0.911241 -0.318005 -2.51179 -0.00367065 -0.278156 -0.16731 1.41418 3.27353 1.28727 0.764728 
0.554 0.988381 0.0123225 0.101722 -0.11227 -1.11149 0.341908 0.911237 -0.31444 -2.5113 -0.00358836 -0.278192 -0.169136 1.41524 3.27712 1.27439 0.763996 
0.555 0.98847 0.0122475 0.101645 -0.111557 -1.1118 0.339397 0.911233 -0.310876 -2.51081 -0.00350696 -0.27822 -0.170955 1.41629 3.28054 1.26151 0.763173 
0.556 0.988559 0.0121724 0.101567 -0.110844 -1.11211 0.336886 0.91123 -0.307313 -2.51034 -0.0034265 -0.278241 -0.172766 1.41732 3.28377 1.24861 0.76226 
0.557 0.988648 0.0120972 0.101487 -0.11013 -1.11241 0.334376 0.911227 -0.30375 -2.50987 -0.00334703 -0.278254 -0.174569 1.41834 3.28683 1.2357 0.761255 
0.558 0.988737 0.012022 0.101407 -0.109415 -1.11272 0.331866 0.911223 -0.300189 -2.50941 -0.0032686 -0.27826 -0.176364 1.41934 3.2897 1.22278 0.760158 
0.559 0.988825 0.0119467 0.101326 -0.1087 -1.11301 0.329357 0.91122 -0.296628 -2.50896 -0.00319125 -0.278258 -0.178151 1.42032 3.2924 1.20984 0.758968 
0.56 0.988912 0.0118714 0.101245 -0.107985 -1.11331 0.326848 0.911217 -0.293068 -2.50852 -0.00311503 -0.278248 -0.179931 1.42129 3.29491 1.1969 0.757685 
0.561 0.989 0.011796 0.101162 -0.107269 -1.1136 0.32434 0.911214 -0.28951 -2.50809 -0.00303999 -0.278231 -0.181703 1.42225 3.29725 1.18394 0.756309 
0.562 0.989087 0.0117206 0.101078 -0.106552 -1.11389 0.321832 0.911211 -0.285954 -2.50766 -0.00296618 -0.278206 -0.183467 1.42319 3.2994 1.17097 0.754839 
0.563 0.989173 0.0116452 0.100993 -0.105835 -1.11417 0.319325 0.911208 -0.282399 -2.50724 -0.00289365 -0.278173 -0.185223 1.42411 3.30137 1.158 0.753274 
0.564 0.989259 0.0115697 0.100908 -0.105118 -1.11445 0.316818 0.911205 -0.278846 -2.50683 -0.00282244 -0.278133 -0.186971 1.42502 3.30316 1.14501 0.751614 
0.565 0.989345 0.0114942 0.100821 -0.1044 -1.11473 0.314311 0.911202 -0.275295 -2.50643 -0.00275262 -0.278085 -0.188712 1.42592 3.30477 1.13202 0.749859 
0.566 0.98943 0.0114186 0.100733 -0.103681 -1.115 0.311805 0.911199 -0.271747 -2.50603 -0.00268422 -0.278029 -0.190445 1.4268 3.30619 1.11901 0.748008 
0.567 0.989515 0.011343 0.100645 -0.102962 -1.11527 0.309299 0.911197 -0.2682 -2.50565 -0.0026173 -0.277965 -0.19217 1.42766 3.30744 1.106 0.74606 
0.568 0.9896 0.0112675 0.100556 -0.102243 -1.11554 0.306794 0.911194 -0.264656 -2.50527 -0.00255192 -0.277893 -0.193888 1.42851 3.3085 1.09298 0.744016 
0.569 0.989684 0.0111919 0.100466 -0.101523 -1.1158 0.304288 0.911192 -0.261115 -2.50489 -0.00248812 -0.277813 -0.195598 1.42935 3.30938 1.07995 0.741875 
0.57 0.989768 0.0111163 0.100374 -0.100802 -1.11606 0.301784 0.911189 -0.257577 -2.50453 -0.00242596 -0.277726 -0.1973 1.43017 3.31007 1.06691 0.739636 
0.571 0.989851 0.0110406 0.100282 -0.100081 -1.11632 0.299279 0.911187 -0.254042 -2.50417 -0.00236549 -0.27763 -0.198995 1.43097 3.31059 1.05387 0.737299 
0.572 0.989934 0.010965 0.100189 -0.0993601 -1.11657 0.296775 0.911185 -0.25051 -2.50382 -0.00230677 -0.277527 -0.200682 1.43176 3.31092 1.04082 0.734863 
0.573 0.990017 0.0108894 0.100096 -0.0986384 -1.11682 0.294272 0.911182 -0.246982 -2.50348 -0.00224984 -0.277415 -0.202362 1.43254 3.31107 1.02777 0.732329 
0.574 0.990099 0.0108138 0.100001 -0.0979163 -1.11706 0.291768 0.91118 -0.243457 -2.50315 -0.00219477 -0.277296 -0.204034 1.43329 3.31103 1.01471 0.729696 
0.575 0.99018 0.0107382 0.0999052 -0.0971938 -1.11731 0.289265 0.911178 -0.239935 -2.50282 -0.00214162 -0.277168 -0.205699 1.43404 3.31081 1.00164 0.726964 
0.576 0.990262 0.0106626 0.0998087 -0.0964709 -1.11754 0.286763 0.911176 -0.236418 -2.5025 -0.00209042 -0.277032 -0.207356 1.43477 3.31041 0.988569 0.724132 
0.577 0.990342 0.0105871 0.0997113 -0.0957476 -1.11778 0.28426 0.911174 -0.232904 -2.50219 -0.00204126 -0.276888 -0.209006 1.43548 3.30982 0.975494 0.721199 
0.578 0.990423 0.0105116 0.099613 -0.0950239 -1.11801 0.281758 0.911172 -0.229395 -2.50189 -0.00199417 -0.276736 -0.210648 1.43618 3.30905 0.962416 0.718166 
0.579 0.990503 0.0104361 0.0995139 -0.0942998 -1.11824 0.279257 0.91117 -0.22589 -2.50159 -0.00194922 -0.276576 -0.212283 1.43687 3.3081 0.949334 0.715033 
0.58 0.990582 0.0103606 0.0994138 -0.0935754 -1.11846 0.276755 0.911168 -0.22239 -2.5013 -0.00190646 -0.276408 -0.213911 1.43753 3.30696 0.936249 0.711798 
0.581 0.990661 0.0102851 0.0993129 -0.0928505 -1.11868 0.274254 0.911166 -0.218894 -2.50102 -0.00186596 -0.276232 -0.215531 1.43819 3.30564 0.923161 0.708462 
0.582 0.99074 0.0102097 0.0992112 -0.0921254 -1.1189 0.271753 0.911164 -0.215404 -2.50074 -0.00182777 -0.276047 -0.217144 1.43883 3.30413 0.910072 0.705025 
0.583 0.990818 0.0101344 0.0991085 -0.0913999 -1.11911 0.269253 0.911162 -0.211918 -2.50048 -0.00179195 -0.275854 -0.21875 1.43945 3.30245 0.89698 0.701485 
0.584 0.990896 0.0100591 0.0990051 -0.090674 -1.11932 0.266752 0.91116 -0.208437 -2.50022 -0.00175856 -0.275653 -0.220348 1.44006 3.30058 0.883888 0.697844 
0.585 0.990973 0.00998385 0.0989007 -0.0899479 -1.11953 0.264252 0.911159 -0.204962 -2.49996 -0.00172766 -0.275443 -0.221939 1.44065 3.29852 0.870795 0.6941 
0.586 0.99105 0.00990866 0.0987955 -0.0892214 -1.11973 0.261752 0.911157 -0.201493 -2.49972 -0.00169931 -0.275225 -0.223523 1.44123 3.29628 0.857702 0.690253 
0.587 0.991127 0.00983353 0.0986895 -0.0884945 -1.11993 0.259253 0.911155 -0.198029 -2.49948 -0.00167357 -0.274999 -0.2251 1.4418 3.29386 0.844608 0.686304 
0.588 0.991203 0.00975847 0.0985826 -0.0877674 -1.12013 0.256753 0.911154 -0.194571 -2.49925 -0.00165051 -0.274765 -0.22667 1.44235 3.29126 0.831516 0.682252 
0.589 0.991278 0.00968348 0.0984748 -0.08704 -1.12032 0.254254 0.911152 -0.191119 -2.49903 -0.00163018 -0.274522 -0.228232 1.44288 3.28847 0.818424 0.678096 
0.59 0.991354 0.00960857 0.0983662 -0.0863123 -1.12051 0.251755 0.91115 -0.187673 -2.49881 -0.00161265 -0.274271 -0.229788 1.4434 3.2855 0.805334 0.673837 
0.591 0.991428 0.00953373 0.0982568 -0.0855843 -1.1207 0.249257 0.911149 -0.184234 -2.4986 -0.00159797 -0.274011 -0.231336 1.4439 3.28235 0.792247 0.669475 
0.592 0.991503 0.00945898 0.0981466 -0.0848561 -1.12088 0.246758 0.911147 -0.180801 -2.4984 -0.00158622 -0.273743 -0.232878 1.44439 3.27901 0.779161 0.665009 
0.593 0.991576 0.00938432 0.0980355 -0.0841276 -1.12106 0.24426 0.911146 -0.177375 -2.4982 -0.00157745 -0.273467 -0.234412 1.44486 3.27549 0.766079 0.660439 
0.594 0.99165 0.00930974 0.0979236 -0.0833988 -1.12123 0.241762 0.911144 -0.173955 -2.49802 -0.00157172 -0.273182 -0.235939 1.44532 3.27179 0.753 0.655765 
0.595 0.991722 0.00923527 0.0978109 -0.0826698 -1.12141 0.239264 0.911142 -0.170543 -2.49783 -0.00156911 -0.272889 -0.23746 1.44576 3.26791 0.739924 0.650988 
0.596 0.991795 0.0091609 0.0976973 -0.0819405 -1.12158 0.236766 0.911141 -0.167138 -2.49766 -0.00156967 -0.272587 -0.238973 1.44619 3.26385 0.726853 0.646106 
0.597 0.991867 0.00908663 0.0975829 -0.081211 -1.12174 0.234268 0.911139 -0.16374 -2.49749 -0.00157348 -0.272277 -0.24048 1.44661 3.2596 0.713787 0.64112 
0.598 0.991938 0.00901247 0.0974678 -0.0804813 -1.1219 0.231771 0.911138 -0.16035 -2.49733 -0.00158058 -0.271958 -0.24198 1.447 3.25517 0.700727 0.63603 
0.599 0.992009 0.00893843 0.0973518 -0.0797513 -1.12206 0.229274 0.911136 -0.156968 -2.49718 -0.00159105 -0.271631 -0.243473 1.44739 3.25056 0.687671 0.630835 
0.6 0.99208 0.0088645 0.097235 -0.0790212 -1.12222 0.226777 0.911135 -0.153593 -2.49704 -0.00160496 -0.271295 -0.244959 1.44775 3.24578 0.674622 0.625536 
0.601 0.99215 0.0087907 0.0971173 -0.0782908 -1.12237 0.22428 0.911133 -0.150231 -2.49689 -0.00162061 -0.270956 -0.246424 1.44811 3.22817 0.678214 0.621179 
0.602 0.99222 0.00871702 0.096999 -0.0775603 -1.12252 0.221783 0.911131 -0.146887 -2.49673 -0.00163629 -0.27062 -0.247856 1.44846 3.21055 0.681753 0.616813 
0.603 0.992289 0.00864346 0.0968798 -0.0768296 -1.12266 0.219286 0.91113 -0.14356 -2.49656 -0.00165199 -0.270287 -0.249253 1.44881 3.19293 0.685238 0.612437 
0.604 0.992357 0.00857002 0.0967599 -0.0760986 -1.1228 0.21679 0.911128 -0.140251 -2.49638 -0.00166775 -0.269956 -0.250616 1.44915 3.17531 0.688671 0.608051 
0.605 0.992426 0.00849671 0.0966392 -0.0753675 -1.12294 0.214293 0.911126 -0.13696 -2.49619 -0.00168356 -0.269627 -0.251945 1.44948 3.15768 0.69205 0.603657 
0.606 0.992493 0.00842353 0.0965178 -0.0746362 -1.12308 0.211797 0.911125 -0.133686 -2.49598 -0.00169945 -0.269302 -0.25324 1.44981 3.14004 0.695376 0.599253 
0.607 0.99256 0.00835046 0.0963958 -0.0739047 -1.12321 0.209301 0.911123 -0.130431 -2.49577 -0.00171542 -0.268979 -0.254501 1.45013 3.1224 0.698648 0.59484 
0.608 0.992627 0.00827752 0.096273 -0.0731731 -1.12334 0.206806 0.911121 -0.127192 -2.49554 -0.00173149 -0.26866 -0.255728 1.45044 3.10475 0.701867 0.590418 
0.609 0.992693 0.00820471 0.0961496 -0.0724412 -1.12347 0.20431 0.911119 -0.123972 -2.49531 -0.00174767 -0.268343 -0.25692 1.45075 3.0871 0.705032 0.585987 
0.61 0.992759 0.00813202 0.0960255 -0.0717092 -1.12359 0.201815 0.911118 -0.12077 -2.49506 -0.00176398 -0.268029 -0.258078 1.45105 3.06944 0.708143 0.581548 
0.611 0.992824 0.00805945 0.0959008 -0.0709771 -1.12371 0.19932 0.911116 -0.117585 -2.49481 -0.00178042 -0.267718 -0.259203 1.45135 3.05178 0.7112 0.5771 
0.612 0.992889 0.00798701 0.0957755 -0.0702447 -1.12382 0.196826 0.911114 -0.114419 -2.49454 -0.00179702 -0.267411 -0.260293 1.45163 3.0341 0.714203 0.572643 
0.613 0.992953 0.00791469 0.0956496 -0.0695122 -1.12394 0.194331 0.911112 -0.11127 -2.49426 -0.00181377 -0.267106 -0.261348 1.45192 3.01642 0.717152 0.568179 
0.614 0.993017 0.00784249 0.0955231 -0.0687795 -1.12405 0.191837 0.911111 -0.10814 -2.49397 -0.00183071 -0.266805 -0.26237 1.45219 2.99873 0.720046 0.563706 
0.615 0.99308 0.00777042 0.095396 -0.0680467 -1.12415 0.189343 0.911109 -0.105028 -2.49368 -0.00184784 -0.266507 -0.263358 1.45246 2.98104 0.722887 0.559225 
0.616 0.993143 0.00769847 0.0952684 -0.0673138 -1.12426 0.18685 0.911107 -0.101933 -2.49337 -0.00186516 -0.266212 -0.264311 1.45273 2.96333 0.725673 0.554736 
0.617 0.993206 0.00762664 0.0951402 -0.0665806 -1.12436 0.184357 0.911105 -0.0988573 -2.49306 -0.00188271 -0.265921 -0.265231 1.45299 2.94562 0.728404 0.550239 
0.618 0.993267 0.00755493 0.0950116 -0.0658474 -1.12445 0.181864 0.911103 -0.0957994 -2.49273 -0.00190048 -0.265633 -0.266116 1.45324 2.9279 0.731081 0.545734 
0.619 0.993328 0.00748335 0.0948824 -0.065114 -1.12455 0.179371 0.911101 -0.0927598 -2.49239 -0.0019185 -0.265348 -0.266967 1.45348 2.91017 0.733704 0.541222 
0.62 0.993389 0.00741188 0.0947528 -0.0643804 -1.12464 0.176879 0.911099 -0.0897384 -2.49205 -0.00193677 -0.265067 -0.267785 1.45372 2.89243 0.736272 0.536703 
0.621 0.993449 0.00734054 0.0946227 -0.0636467 -1.12473 0.174387 0.911097 -0.0867353 -2.49169 -0.0019553 -0.26479 -0.268568 1.45395 2.87468 0.738786 0.532177 
0.622 0.993509 0.00726931 0.0944922 -0.0629129 -1.12481 0.171895 0.911095 -0.0837506 -2.49133 -0.00197412 -0.264516 -0.269317 1.45418 2.85692 0.741246 0.527643 
0.623 0.993568 0.0071982 0.0943612 -0.0621789 -1.12489 0.169404 0.911093 -0.0807842 -2.49096 -0.00199323 -0.264246 -0.270031 1.4544 2.83915 0.743651 0.523103 
0.624 0.993627 0.00712721 0.0942298 -0.0614449 -1.12497 0.166914 0.911091 -0.0778363 -2.49058 -0.00201265 -0.263979 -0.270712 1.45461 2.82137 0.746001 0.518556 
0.625 0.993685 0.00705634 0.0940981 -0.0607107 -1.12505 0.164423 0.911089 -0.0749068 -2.49019 -0.00203239 -0.263716 -0.271359 1.45482 2.80358 0.748297 0.514003 
0.626 0.993743 0.00698558 0.0939659 -0.0599763 -1.12512 0.161933 0.911087 -0.0719958 -2.48979 -0.00205245 -0.263457 -0.271971 1.45502 2.78578 0.750539 0.509444 
0.627 0.9938 0.00691494 0.0938335 -0.0592419 -1.12519 0.159444 0.911085 -0.0691034 -2.48938 -0.00207286 -0.263202 -0.27255 1.45521 2.76797 0.752727 0.504878 
0.628 0.993856 0.00684441 0.0937006 -0.0585073 -1.12526 0.156954 0.911083 -0.0662295 -2.48896 -0.00209363 -0.262951 -0.273094 1.4554 2.75014 0.75486 0.500306 
0.629 0.993912 0.006774 0.0935675 -0.0577727 -1.12533 0.154466 0.911081 -0.0633743 -2.48854 -0.00211477 -0.262703 -0.273605 1.45558 2.73231 0.756939 0.495729 
0.63 0.993968 0.0067037 0.093434 -0.0570379 -1.12539 0.151977 0.911079 -0.0605377 -2.4881 -0.00213628 -0.26246 -0.274081 1.45576 2.71446 0.758964 0.491146 
0.631 0.994023 0.00663351 0.0933003 -0.056303 -1.12545 0.149489 0.911077 -0.0577198 -2.48766 -0.00215819 -0.26222 -0.274523 1.45593 2.6966 0.760935 0.486557 
0.632 0.994077 0.00656343 0.0931662 -0.055568 -1.1255 0.147002 0.911075 -0.0549206 -2.48721 -0.00218051 -0.261985 -0.274931 1.45609 2.67873 0.762852 0.481964 
0.633 0.994131 0.00649346 0.093032 -0.0548329 -1.12556 0.144515 0.911072 -0.0521401 -2.48675 -0.00220324 -0.261754 -0.275305 1.45625 2.66085 0.764716 0.477366 
0.634 0.994184 0.00642359 0.0928974 -0.0540977 -1.12561 0.142029 0.91107 -0.0493785 -2.48629 -0.0022264 -0.261527 -0.275645 1.45639 2.64295 0.766525 0.472762 
0.635 0.994237 0.00635383 0.0927627 -0.0533625 -1.12566 0.139543 0.911068 -0.0466357 -2.48581 -0.00225 -0.261303 -0.275951 1.45654 2.62504 0.768281 0.468155 
0.636 0.994289 0.00628418 0.0926278 -0.0526271 -1.1257 0.137057 0.911066 -0.0439118 -2.48533 -0.00227405 -0.261085 -0.276222 1.45667 2.60711 0.769984 0.463543 
0.637 0.994341 0.00621463 0.0924927 -0.0518917 -1.12574 0.134572 0.911063 -0.0412067 -2.48484 -0.00229857 -0.26087 -0.27646 1.4568 2.58918 0.771633 0.458926 
0.638 0.994392 0.00614518 0.0923574 -0.0511561 -1.12578 0.132087 0.911061 -0.0385207 -2.48434 -0.00232356 -0.26066 -0.276664 1.45693 2.57122 0.773229 0.454306 
0.639 0.994443 0.00607584 0.0922219 -0.0504205 -1.12582 0.129603 0.911059 -0.0358535 -2.48384 -0.00234903 -0.260454 -0.276833 1.45704 2.55326 0.774773 0.449683 
0.64 0.994493 0.00600659 0.0920864 -0.0496849 -1.12586 0.12712 0.911056 -0.0332054 -2.48333 -0.002375 -0.260252 -0.276969 1.45716 2.53528 0.776263 0.445056 
0.641 0.994542 0.00593744 0.0919507 -0.0489491 -1.12589 0.124637 0.911054 -0.0305764 -2.48281 -0.00240148 -0.260054 -0.27707 1.45726 2.51728 0.777701 0.440425 
0.642 0.994591 0.00586839 0.0918149 -0.0482133 -1.12592 0.122154 0.911052 -0.0279664 -2.48228 -0.00242848 -0.259861 -0.277137 1.45736 2.49927 0.779086 0.435792 
0.643 0.994639 0.00579943 0.091679 -0.0474774 -1.12594 0.119672 0.911049 -0.0253756 -2.48175 -0.00245601 -0.259673 -0.27717 1.45745 2.48124 0.780419 0.431156 
0.644 0.994687 0.00573056 0.0915431 -0.0467415 -1.12597 0.11719 0.911047 -0.0228039 -2.48121 -0.00248407 -0.259489 -0.27717 1.45753 2.4632 0.7817 0.426517 
0.645 0.994734 0.00566179 0.0914071 -0.0460055 -1.12599 0.11471 0.911044 -0.0202514 -2.48066 -0.00251269 -0.259309 -0.277135 1.45761 2.44514 0.782929 0.421876 
0.646 0.994781 0.00559311 0.0912711 -0.0452694 -1.12601 0.112229 0.911042 -0.0177181 -2.48011 -0.00254187 -0.259134 -0.277066 1.45768 2.42707 0.784107 0.417233 
0.647 0.994827 0.00552451 0.0911351 -0.0445333 -1.12602 0.109749 0.911039 -0.0152041 -2.47955 -0.00257161 -0.258964 -0.276962 1.45775 2.40898 0.785233 0.412588 
0.648 0.994872 0.005456 0.0909991 -0.0437971 -1.12604 0.10727 0.911036 -0.0127093 -2.47898 -0.00260193 -0.258798 -0.276825 1.45781 2.39087 0.786309 0.407942 
0.649 0.994917 0.00538757 0.0908631 -0.0430609 -1.12605 0.104791 0.911034 -0.0102339 -2.47841 -0.00263284 -0.258636 -0.276654 1.45786 2.37275 0.787333 0.403294 
0.65 0.994962 0.00531923 0.0907271 -0.0423247 -1.12606 0.102313 0.911031 -0.00777787 -2.47783 -0.00266435 -0.25848 -0.276448 1.4579 2.35461 0.788307 0.398646 
0.651 0.995006 0.00525097 0.0905912 -0.0415884 -1.12607 0.0998357 0.911029 -0.00534122 -2.47725 -0.00269647 -0.258328 -0.276209 1.45794 2.33645 0.78923 0.393996 
0.652 0.995049 0.00518278 0.0904554 -0.040852 -1.12607 0.0973587 0.911026 -0.002924 -2.47666 -0.0027292 -0.25818 -0.275935 1.45798 2.31827 0.790104 0.389346 
0.653 0.995091 0.00511467 0.0903196 -0.0401157 -1.12607 0.0948824 0.911023 -0.000526246 -2.47606 -0.00276255 -0.258038 -0.275628 1.458 2.30007 0.790927 0.384696 
0.654 0.995133 0.00504664 0.090184 -0.0393793 -1.12607 0.0924066 0.91102 0.00185201 -2.47546 -0.00279654 -0.2579 -0.275286 1.45802 2.28186 0.791702 0.380046 
0.655 0.995175 0.00497868 0.0900485 -0.0386429 -1.12607 0.0899315 0.911017 0.00421074 -2.47485 -0.00283116 -0.257767 -0.27491 1.45803 2.26363 0.792427 0.375396 
0.656 0.995216 0.00491079 0.0899131 -0.0379065 -1.12606 0.0874569 0.911015 0.00654991 -2.47423 -0.00286644 -0.257638 -0.2745 1.45804 2.24538 0.793103 0.370746 
0.657 0.995256 0.00484296 0.0897779 -0.03717 -1.12605 0.084983 0.911012 0.00886948 -2.47361 -0.00290237 -0.257515 -0.274056 1.45804 2.22711 0.793731 0.366098 
0.658 0.995296 0.0047752 0.0896429 -0.0364335 -1.12604 0.0825097 0.911009 0.0111694 -2.47299 -0.00293897 -0.257396 -0.273578 1.45803 2.20882 0.794311 0.36145 
0.659 0.995335 0.00470751 0.089508 -0.0356971 -1.12603 0.080037 0.911006 0.0134497 -2.47236 -0.00297623 -0.257282 -0.273065 1.45802 2.19051 0.794842 0.356804 
0.66 0.995374 0.00463988 0.0893734 -0.0349606 -1.12602 0.077565 0.911003 0.0157103 -2.47172 -0.00301417 -0.257173 -0.272519 1.458 2.17218 0.795327 0.352159 
0.661 0.995412 0.00457231 0.089239 -0.0342241 -1.126 0.0750936 0.911 0.0179511 -2.47108 -0.0030528 -0.257069 -0.271938 1.45798 2.15383 0.795764 0.347517 
0.662 0.995449 0.00450479 0.0891048 -0.0334876 -1.12598 0.0726228 0.910997 0.0201722 -2.47043 -0.00309212 -0.25697 -0.271324 1.45794 2.13546 0.796155 0.342876 
0.663 0.995486 0.00443733 0.088971 -0.0327511 -1.12596 0.0701527 0.910994 0.0223735 -2.46978 -0.00313213 -0.256875 -0.270675 1.4579 2.11707 0.7965 0.338238 
0.664 0.995522 0.00436992 0.0888373 -0.0320146 -1.12594 0.0676833 0.910991 0.024555 -2.46913 -0.00317285 -0.256786 -0.269992 1.45786 2.09866 0.796798 0.333603 
0.665 0.995558 0.00430256 0.088704 -0.0312782 -1.12591 0.0652145 0.910987 0.0267166 -2.46847 -0.00321428 -0.256701 -0.269275 1.4578 2.08023 0.797051 0.328971 
0.666 0.995593 0.00423525 0.088571 -0.0305417 -1.12588 0.0627463 0.910984 0.0288584 -2.4678 -0.00325642 -0.256621 -0.268523 1.45775 2.06177 0.797259 0.324342 
0.667 0.995627 0.00416798 0.0884384 -0.0298052 -1.12585 0.0602789 0.910981 0.0309802 -2.46713 -0.00329928 -0.256547 -0.267738 1.45768 2.04329 0.797423 0.319717 
0.668 0.995661 0.00410076 0.088306 -0.0290688 -1.12582 0.0578121 0.910977 0.033082 -2.46646 -0.00334286 -0.256477 -0.266919 1.45761 2.0248 0.797542 0.315096 
0.669 0.995694 0.00403357 0.0881741 -0.0283324 -1.12579 0.055346 0.910974 0.0351639 -2.46578 -0.00338717 -0.256412 -0.266065 1.45753 2.00628 0.797617 0.310479 
0.67 0.995726 0.00396643 0.0880425 -0.027596 -1.12575 0.0528805 0.910971 0.0372258 -2.4651 -0.00343221 -0.256352 -0.265177 1.45744 1.98773 0.797649 0.305867 
0.671 0.995758 0.00389932 0.0879113 -0.0268597 -1.12571 0.0504158 0.910967 0.0392676 -2.46441 -0.00347799 -0.256297 -0.264255 1.45735 1.96916 0.797638 0.301259 
0.672 0.99579 0.00383224 0.0877806 -0.0261234 -1.12567 0.0479517 0.910964 0.0412893 -2.46372 -0.00352451 -0.256248 -0.263299 1.45725 1.95057 0.797585 0.296657 
0.673 0.995821 0.00376519 0.0876503 -0.0253871 -1.12563 0.0454883 0.91096 0.0432909 -2.46302 -0.00357177 -0.256203 -0.262309 1.45715 1.93196 0.79749 0.29206 
0.674 0.995851 0.00369816 0.0875204 -0.0246508 -1.12559 0.0430257 0.910957 0.0452724 -2.46233 -0.00361977 -0.256163 -0.261285 1.45704 1.91332 0.797353 0.287469 
0.675 0.99588 0.00363117 0.087391 -0.0239146 -1.12554 0.0405637 0.910953 0.0472337 -2.46162 -0.00366853 -0.256128 -0.260226 1.45692 1.89466 0.797176 0.282884 
0.676 0.995909 0.00356419 0.0872621 -0.0231785 -1.12549 0.0381024 0.910949 0.0491749 -2.46092 -0.00371803 -0.256098 -0.259133 1.45679 1.87598 0.796958 0.278305 
0.677 0.995938 0.00349723 0.0871337 -0.0224424 -1.12544 0.0356419 0.910946 0.0510957 -2.46021 -0.00376829 -0.256073 -0.258006 1.45666 1.85726 0.7967 0.273733 
0.678 0.995965 0.00343029 0.0870058 -0.0217063 -1.12539 0.033182 0.910942 0.0529964 -2.4595 -0.0038193 -0.256053 -0.256845 1.45653 1.83853 0.796403 0.269168 
0.679 0.995993 0.00336336 0.0868784 -0.0209703 -1.12534 0.0307229 0.910938 0.0548767 -2.45878 -0.00387106 -0.256038 -0.25565 1.45638 1.81977 0.796067 0.264611 
0.68 0.996019 0.00329644 0.0867516 -0.0202344 -1.12528 0.0282644 0.910934 0.0567367 -2.45806 -0.00392358 -0.256028 -0.25442 1.45623 1.80098 0.795693 0.260061 
0.681 0.996045 0.00322953 0.0866254 -0.0194985 -1.12522 0.0258067 0.91093 0.0585764 -2.45734 -0.00397686 -0.256023 -0.253156 1.45607 1.78217 0.795281 0.255519 
0.682 0.99607 0.00316263 0.0864998 -0.0187627 -1.12516 0.0233498 0.910926 0.0603956 -2.45661 -0.0040309 -0.256023 -0.251858 1.45591 1.76333 0.794832 0.250986 
0.683 0.996095 0.00309573 0.0863747 -0.018027 -1.1251 0.0208935 0.910922 0.0621945 -2.45588 -0.00408569 -0.256028 -0.250526 1.45574 1.74447 0.794346 0.246461 
0.684 0.996119 0.00302882 0.0862503 -0.0172913 -1.12504 0.018438 0.910918 0.0639729 -2.45515 -0.00414123 -0.256038 -0.24916 1.45556 1.72557 0.793824 0.241946 
0.685 0.996142 0.00296191 0.0861266 -0.0165557 -1.12497 0.0159832 0.910914 0.0657308 -2.45442 -0.00419754 -0.256053 -0.247759 1.45538 1.70666 0.793267 0.237439 
0.686 0.996165 0.002895 0.0860035 -0.0158202 -1.12491 0.0135292 0.910909 0.0674683 -2.45368 -0.00425459 -0.256073 -0.246325 1.45519 1.68771 0.792675 0.232942 
0.687 0.996187 0.00282808 0.085881 -0.0150848 -1.12484 0.0110759 0.910905 0.0691852 -2.45294 -0.0043124 -0.256098 -0.244855 1.45499 1.66874 0.792049 0.228456 
0.688 0.996209 0.00276114 0.0857593 -0.0143495 -1.12477 0.00862328 0.910901 0.0708815 -2.4522 -0.00437096 -0.256128 -0.243352 1.45479 1.64974 0.79139 0.223979 
0.689 0.99623 0.00269419 0.0856383 -0.0136143 -1.1247 0.00617145 0.910896 0.0725572 -2.45146 -0.00443026 -0.256162 -0.241815 1.45458 1.63071 0.790697 0.219513 
0.69 0.99625 0.00262722 0.085518 -0.0128791 -1.12462 0.00372036 0.910892 0.0742124 -2.45071 -0.00449031 -0.256202 -0.240243 1.45436 1.61165 0.789972 0.215059 
0.691 0.99627 0.00256023 0.0853984 -0.0121441 -1.12455 0.00127003 0.910887 0.0758468 -2.44996 -0.0045511 -0.256246 -0.238637 1.45414 1.59256 0.789216 0.210615 
0.692 0.996289 0.00249321 0.0852796 -0.0114091 -1.12447 -0.00117956 0.910883 0.0774606 -2.44921 -0.00461263 -0.256296 -0.236996 1.45391 1.57345 0.788429 0.206184 
0.693 0.996307 0.00242617 0.0851616 -0.0106743 -1.12439 -0.0036284 0.910878 0.0790537 -2.44846 -0.00467489 -0.25635 -0.235322 1.45368 1.5543 0.787611 0.201764 
0.694 0.996325 0.00235909 0.0850444 -0.00993957 -1.12431 -0.00607648 0.910874 0.080626 -2.4477 -0.00473788 -0.256409 -0.233613 1.45343 1.53513 0.786763 0.197357 
0.695 0.996342 0.00229198 0.084928 -0.00920495 -1.12423 -0.00852381 0.910869 0.0821776 -2.44695 -0.00480159 -0.256473 -0.23187 1.45318 1.51592 0.785887 0.192962 
0.696 0.996358 0.00222484 0.0848124 -0.00847045 -1.12415 -0.0109704 0.910864 0.0837083 -2.44619 -0.00486602 -0.256541 -0.230092 1.45293 1.49669 0.784983 0.188581 
0.697 0.996374 0.00215765 0.0846977 -0.00773607 -1.12406 -0.0134162 0.910859 0.0852183 -2.44543 -0.00493117 -0.256615 -0.228281 1.45267 1.47743 0.784051 0.184212 
0.698 0.99639 0.00209042 0.0845838 -0.00700181 -1.12398 -0.0158612 0.910854 0.0867074 -2.44467 -0.00499702 -0.256693 -0.226435 1.4524 1.45813 0.783092 0.179858 
0.699 0.996404 0.00202315 0.0844708 -0.00626768 -1.12389 -0.0183055 0.910849 0.0881755 -2.44391 -0.00506357 -0.256776 -0.224554 1.45212 1.4388 0.782107 0.175518 
0.7 0.996418 0.00195583 0.0843587 -0.00553367 -1.1238 -0.020749 0.910844 0.0896228 -2.44314 -0.00513082 -0.256863 -0.22264 1.45184 1.41945 0.781097 0.171192 
0.701 0.996432 0.00188845 0.0842476 -0.0047998 -1.12371 -0.0231918 0.910839 0.0910491 -2.44238 -0.00519875 -0.256955 -0.220691 1.45155 1.40006 0.780062 0.166881 
0.702 0.996444 0.00182102 0.0841373 -0.00406607 -1.12362 -0.0256338 0.910834 0.0924545 -2.44161 -0.00526736 -0.257052 -0.218707 1.45126 1.38064 0.779003 0.162586 
0.703 0.996456 0.00175353 0.084028 -0.00333248 -1.12353 -0.028075 0.910828 0.0938388 -2.44084 -0.00533663 -0.257154 -0.21669 1.45096 1.36118 0.777921 0.158305 
0.704 0.996468 0.00168597 0.0839197 -0.00259902 -1.12343 -0.0305155 0.910823 0.0952022 -2.44007 -0.00540657 -0.25726 -0.214638 1.45065 1.3417 0.776817 0.154041 
0.705 0.996478 0.00161835 0.0838124 -0.00186572 -1.12334 -0.0329552 0.910817 0.0965444 -2.4393 -0.00547716 -0.25737 -0.212551 1.45034 1.32218 0.775692 0.149793 
0.706 0.996489 0.00155067 0.0837061 -0.00113257 -1.12324 -0.0353941 0.910812 0.0978656 -2.43853 -0.00554839 -0.257485 -0.210431 1.45002 1.30262 0.774545 0.145562 
0.707 0.996498 0.00148291 0.0836007 -0.000399568 -1.12314 -0.0378322 0.910806 0.0991656 -2.43776 -0.00562024 -0.257605 -0.208276 1.44969 1.28304 0.773379 0.141347 
0.708 0.996507 0.00141508 0.0834965 0.000333275 -1.12304 -0.0402696 0.910801 0.100444 -2.43699 -0.00569272 -0.257729 -0.206086 1.44936 1.26342 0.772194 0.13715 
0.709 0.996515 0.00134716 0.0833933 0.00106596 -1.12294 -0.0427062 0.910795 0.101702 -2.43621 -0.00576581 -0.257857 -0.203862 1.44902 1.24377 0.77099 0.132971 
0.71 0.996523 0.00127917 0.0832911 0.00179847 -1.12284 -0.045142 0.910789 0.102939 -2.43544 -0.0058395 -0.25799 -0.201604 1.44867 1.22408 0.769769 0.128809 
0.711 0.99653 0.00121109 0.08319 0.00253082 -1.12273 -0.0475771 0.910783 0.104154 -2.43466 -0.00591377 -0.258127 -0.199312 1.44832 1.20435 0.768531 0.124666 
0.712 0.996536 0.00114293 0.0830901 0.003263 -1.12263 -0.0500114 0.910777 0.105348 -2.43389 -0.00598861 -0.258268 -0.196985 1.44796 1.1846 0.767278 0.120542 
0.713 0.996542 0.00107467 0.0829912 0.003995 -1.12252 -0.0524449 0.910771 0.106521 -2.43311 -0.00606401 -0.258414 -0.194623 1.4476 1.1648 0.766009 0.116437 
0.714 0.996547 0.00100632 0.0828935 0.00472683 -1.12242 -0.0548776 0.910765 0.107672 -2.43234 -0.00613996 -0.258564 -0.192227 1.44723 1.14498 0.764727 0.112351 
0.715 0.996551 0.000937876 0.082797 0.00545847 -1.12231 -0.0573095 0.910759 0.108802 -2.43156 -0.00621644 -0.258718 -0.189797 1.44685 1.12511 0.763431 0.108286 
0.716 0.996555 0.000869328 0.0827016 0.00618993 -1.1222 -0.0597407 0.910753 0.109911 -2.43079 -0.00629344 -0.258876 -0.187332 1.44646 1.10521 0.762124 0.10424 
0.717 0.996558 0.000800675 0.0826075 0.0069212 -1.12209 -0.0621711 0.910746 0.110998 -2.43001 -0.00637093 -0.259038 -0.184833 1.44607 1.08528 0.760804 0.100215 
0.718 0.99656 0.000731916 0.0825145 0.00765227 -1.12198 -0.0646007 0.91074 0.112063 -2.42924 -0.00644892 -0.259204 -0.1823 1.44568 1.0653 0.759475 0.096211 
0.719 0.996562 0.000663046 0.0824228 0.00838315 -1.12186 -0.0670296 0.910734 0.113108 -2.42846 -0.00652737 -0.259374 -0.179732 1.44527 1.04529 0.758135 0.0922283 
0.72 0.996563 0.000594062 0.0823323 0.00911384 -1.12175 -0.0694577 0.910727 0.11413 -2.42768 -0.00660628 -0.259548 -0.177129 1.44486 1.02524 0.756787 0.0882673 
0.721 0.996564 0.000524962 0.082243 0.00984431 -1.12164 -0.0718849 0.91072 0.115132 -2.42691 -0.00668562 -0.259726 -0.174492 1.44445 1.00516 0.755432 0.0843282 
0.722 0.996563 0.000455741 0.0821551 0.0105746 -1.12152 -0.0743115 0.910714 0.116111 -2.42613 -0.00676538 -0.259908 -0.171821 1.44403 0.985036 0.75407 0.0804116 
0.723 0.996563 0.000386397 0.0820684 0.0113047 -1.1214 -0.0767372 0.910707 0.117069 -2.42536 -0.00684554 -0.260093 -0.169115 1.4436 0.964874 0.752701 0.0765177 
0.724 0.996561 0.000316926 0.081983 0.0120345 -1.12129 -0.0791622 0.9107 0.118006 -2.42459 -0.00692609 -0.260283 -0.166375 1.44316 0.944674 0.751329 0.072647 
0.725 0.996559 0.000247325 0.081899 0.0127641 -1.12117 -0.0815864 0.910693 0.118921 -2.42381 -0.00700699 -0.260475 -0.1636 1.44272 0.924435 0.749952 0.0687997 
0.726 0.996556 0.000177591 0.0818163 0.0134935 -1.12105 -0.0840098 0.910686 0.119814 -2.42304 -0.00708824 -0.260672 -0.160791 1.44227 0.904157 0.748572 0.0649763 
0.727 0.996553 0.000107721 0.081735 0.0142227 -1.12093 -0.0864325 0.910679 0.120685 -2.42227 -0.00716981 -0.260871 -0.157947 1.44182 0.883839 0.74719 0.0611771 
0.728 0.996548 3.77115e-05 0.0816551 0.0149517 -1.12081 -0.0888543 0.910672 0.121535 -2.4215 -0.00725168 -0.261075 -0.155068 1.44136 0.863482 0.745808 0.0574024 
0.729 0.996544 -3.24408e-05 0.0815765 0.0156804 -1.12069 -0.0912755 0.910664 0.122362 -2.42072 -0.00733383 -0.261281 -0.152155 1.44089 0.843084 0.744426 0.0536527 
0.73 0.996538 -0.000102739 0.0814994 0.0164089 -1.12056 -0.0936958 0.910657 0.123168 -2.41995 -0.00741623 -0.261491 -0.149208 1.44042 0.822647 0.743045 0.0499283 
0.731 0.996532 -0.000173186 0.0814237 0.0171372 -1.12044 -0.0961154 0.910649 0.123952 -2.41918 -0.00749888 -0.261704 -0.146226 1.43994 0.802169 0.741666 0.0462295 
0.732 0.996525 -0.000243786 0.0813494 0.0178652 -1.12031 -0.0985342 0.910642 0.124715 -2.41842 -0.00758173 -0.261921 -0.143209 1.43946 0.781649 0.74029 0.0425567 
0.733 0.996518 -0.000314541 0.0812766 0.018593 -1.12019 -0.100952 0.910634 0.125455 -2.41765 -0.00766477 -0.26214 -0.140158 1.43896 0.761089 0.738918 0.0389103 
0.734 0.99651 -0.000385454 0.0812053 0.0193205 -1.12006 -0.103369 0.910627 0.126173 -2.41688 -0.00774798 -0.262363 -0.137073 1.43847 0.740487 0.737552 0.0352905 
0.735 0.996501 -0.000456529 0.0811355 0.0200478 -1.11994 -0.105786 0.910619 0.12687 -2.41612 -0.00783133 -0.262588 -0.133952 1.43796 0.719843 0.736192 0.0316979 
0.736 0.996492 -0.000527769 0.0810673 0.0207748 -1.11981 -0.108202 0.910611 0.127544 -2.41535 -0.00791479 -0.262817 -0.130797 1.43745 0.699157 0.73484 0.0281327 
0.737 0.996482 -0.000599177 0.0810005 0.0215016 -1.11968 -0.110617 0.910603 0.128197 -2.41459 -0.00799834 -0.263048 -0.127608 1.43694 0.678429 0.733496 0.0245953 
0.738 0.996471 -0.000670756 0.0809353 0.0222281 -1.11955 -0.113031 0.910595 0.128827 -2.41383 -0.00808195 -0.263282 -0.124384 1.43642 0.657658 0.732162 0.0210859 
0.739 0.99646 -0.000742509 0.0808717 0.0229543 -1.11942 -0.115444 0.910587 0.129435 -2.41307 -0.0081656 -0.263518 -0.121125 1.43589 0.636845 0.730839 0.0176051 
0.74 0.996448 -0.00081444 0.0808096 0.0236803 -1.11929 -0.117857 0.910579 0.130021 -2.41231 -0.00824925 -0.263757 -0.117832 1.43535 0.615988 0.729528 0.0141531 
0.741 0.996435 -0.00088655 0.0807492 0.024406 -1.11916 -0.120269 0.91057 0.130585 -2.41155 -0.00833289 -0.263999 -0.114504 1.43481 0.595087 0.728229 0.0107303 
0.742 0.996422 -0.000958844 0.0806904 0.0251314 -1.11903 -0.12268 0.910562 0.131127 -2.4108 -0.00841647 -0.264243 -0.111142 1.43427 0.574143 0.726945 0.00733696 
0.743 0.996408 -0.00103132 0.0806332 0.0258565 -1.1189 -0.125091 0.910553 0.131646 -2.41005 -0.00849998 -0.264489 -0.107745 1.43371 0.553154 0.725676 0.0039735 
0.744 0.996393 -0.00110399 0.0805777 0.0265814 -1.11877 -0.1275 0.910545 0.132144 -2.40929 -0.00858338 -0.264738 -0.104313 1.43315 0.532122 0.724423 0.000640253 
0.745 0.996378 -0.00117685 0.0805238 0.027306 -1.11864 -0.129909 0.910536 0.132619 -2.40854 -0.00866664 -0.264988 -0.100847 1.43259 0.511044 0.723188 -0.00266246 
0.746 0.996362 -0.00124991 0.0804716 0.0280302 -1.1185 -0.132317 0.910528 0.133071 -2.40779 -0.00874973 -0.265241 -0.0973454 1.43202 0.489922 0.721972 -0.00593429 
0.747 0.996345 -0.00132317 0.0804212 0.0287542 -1.11837 -0.134725 0.910519 0.133501 -2.40705 -0.00883262 -0.265496 -0.0938097 1.43144 0.468755 0.720776 -0.0091749 
0.748 0.996328 -0.00139662 0.0803724 0.0294779 -1.11824 -0.137131 0.91051 0.133909 -2.4063 -0.00891528 -0.265752 -0.0902393 1.43086 0.447542 0.7196 -0.012384 
0.749 0.99631 -0.00147028 0.0803254 0.0302013 -1.1181 -0.139537 0.910501 0.134294 -2.40556 -0.00899767 -0.266011 -0.0866342 1.43027 0.426283 0.718448 -0.0155612 
0.75 0.996291 -0.00154415 0.0802802 0.0309244 -1.11797 -0.141943 0.910492 0.134657 -2.40482 -0.00907976 -0.266271 -0.0829945 1.42967 0.404979 0.717318 -0.0187062 
0.751 0.996272 -0.00161823 0.0802367 0.0316472 -1.11783 -0.144347 0.910483 0.134998 -2.40408 -0.00916152 -0.266532 -0.07932 1.42907 0.383628 0.716214 -0.0218186 
0.752 0.996252 -0.00169251 0.0801951 0.0323697 -1.1177 -0.146751 0.910474 0.135316 -2.40334 -0.00924291 -0.266795 -0.0756108 1.42847 0.362231 0.715135 -0.0248982 
0.753 0.996231 -0.00176702 0.0801552 0.0330918 -1.11756 -0.149154 0.910464 0.135611 -2.4026 -0.0093239 -0.26706 -0.071867 1.42785 0.340786 0.714084 -0.0279447 
0.754 0.99621 -0.00184174 0.0801172 0.0338137 -1.11743 -0.151556 0.910455 0.135883 -2.40187 -0.00940445 -0.267326 -0.0680884 1.42724 0.319295 0.713061 -0.0309576 
0.755 0.996188 -0.00191668 0.080081 0.0345352 -1.11729 -0.153957 0.910445 0.136133 -2.40114 -0.00948453 -0.267593 -0.0642751 1.42661 0.297757 0.712068 -0.0339368 
0.756 0.996165 -0.00199185 0.0800466 0.0352564 -1.11716 -0.156358 0.910436 0.136361 -2.40041 -0.0095641 -0.267861 -0.0604271 1.42598 0.276171 0.711106 -0.0368818 
0.757 0.996142 -0.00206724 0.0800142 0.0359773 -1.11702 -0.158758 0.910426 0.136565 -2.39968 -0.00964312 -0.26813 -0.0565443 1.42535 0.254538 0.710176 -0.0397924 
0.758 0.996118 -0.00214286 0.0799836 0.0366978 -1.11688 -0.161158 0.910417 0.136747 -2.39896 -0.00972155 -0.268399 -0.0526268 1.4247 0.232856 0.70928 -0.0426683 
0.759 0.996093 -0.00221872 0.0799549 0.037418 -1.11675 -0.163556 0.910407 0.136906 -2.39823 -0.00979936 -0.26867 -0.0486746 1.42406 0.211126 0.708418 -0.0455092 
0.76 0.996068 -0.0022948 0.0799282 0.0381379 -1.11661 -0.165954 0.910397 0.137042 -2.39751 -0.00987651 -0.268941 -0.0446876 1.4234 0.189348 0.707593 -0.0483147 
0.761 0.996042 -0.00237113 0.0799035 0.0388574 -1.11647 -0.168351 0.910387 0.137155 -2.39679 -0.00995295 -0.269213 -0.0406658 1.42274 0.167521 0.706805 -0.0510846 
0.762 0.996015 -0.00244769 0.0798806 0.0395766 -1.11633 -0.170748 0.910377 0.137245 -2.39608 -0.0100286 -0.269485 -0.0366093 1.42208 0.145645 0.706056 -0.0538187 
0.763 0.995988 -0.00252449 0.0798598 0.0402955 -1.1162 -0.173143 0.910367 0.137313 -2.39537 -0.0101036 -0.269757 -0.032518 1.42141 0.12372 0.705347 -0.0565165 
